# N Sco 2012
# 2012-07-11T03:21:16.500
# 
#     Wavelength       Flux    Uncertainty       Counts  Uncertainty
# 
       2712.7244      0.00000      0.00000      8.06693      7.55281
       2718.4138      0.00000      0.00000      6.54525      7.65154
       2724.1032      0.00000      0.00000      22.1641      7.40199
       2729.7926      0.00000      0.00000      3.54044      6.20359
       2735.4821      0.00000      0.00000      0.00000      6.00000
       2741.1715      0.00000      0.00000      27.9389      7.64290
       2746.8609      0.00000      0.00000      19.0540      7.47878
       2752.5503      0.00000      0.00000      27.0759      7.96232
       2758.2397      0.00000      0.00000      27.2363      8.10927
       2763.9292      0.00000      0.00000      30.4965      8.14568
       2769.6186      0.00000      0.00000      24.7795      7.79302
       2775.3080      0.00000      0.00000      15.5395      7.21251
       2780.9974      0.00000      0.00000      20.4157      7.44397
       2786.6868      0.00000      0.00000      21.9525      7.70238
       2792.3763      0.00000      0.00000      23.1930      7.45424
       2798.0657      0.00000      0.00000      24.0016      7.51141
       2803.7551      0.00000      0.00000      2.39391      6.85130
       2809.4445      0.00000      0.00000      4.70122      6.34262
       2815.1339      0.00000      0.00000      18.9127      7.37833
       2820.8233      0.00000      0.00000     0.997565      6.11079
       2826.5128      0.00000      0.00000      7.53628      6.83700
       2832.2022      0.00000      0.00000      1.10893      6.05871
       2837.8916      0.00000      0.00000      29.4264      7.55794
       2843.5810      0.00000      0.00000      12.6630      7.35859
       2849.2704      0.00000      0.00000      11.0109      7.26239
       2854.9599      0.00000      0.00000      40.7927      8.61313
       2860.6493      0.00000      0.00000      7.52001      6.46834
       2866.3387      0.00000      0.00000      4.31196      6.90086
       2872.0281      0.00000      0.00000      1.33537      6.27899
       2877.7175      0.00000      0.00000      4.44072      6.88793
       2883.4070      0.00000      0.00000      7.33685      7.27208
       2889.0964      0.00000      0.00000      27.7618      8.26051
       2894.7858      0.00000      0.00000      28.3298      8.09598
       2900.4752      0.00000      0.00000      11.7950      7.37723
       2906.1646      0.00000      0.00000      8.69672      7.10901
       2911.8541      0.00000      0.00000      6.39148      6.52997
       2917.5435      0.00000      0.00000      0.00000      6.00000
       2923.2329      0.00000      0.00000      0.00000      6.00000
       2928.9223      0.00000      0.00000      3.20110      6.46316
       2934.6117      0.00000      0.00000      8.98100      7.17338
       2940.3012      0.00000      0.00000      12.9091      7.22516
       2945.9906      0.00000      0.00000      18.3296      7.40633
       2951.6800      0.00000      0.00000      16.3869      7.27073
       2957.3694      0.00000      0.00000      22.8122      8.03001
       2963.0588      0.00000      0.00000      38.4261      8.45184
       2968.7483      0.00000      0.00000      28.2003      7.65524
       2974.4377      0.00000      0.00000      21.1387      7.17153
       2980.1271      0.00000      0.00000      23.3105      7.42943
       2985.8165      0.00000      0.00000      30.1070      8.82448
       2991.5059      0.00000      0.00000      13.3618      7.41023
       2997.1954      0.00000      0.00000      5.44518      7.16579
       3002.8848      0.00000      0.00000      21.2104      7.67884
       3008.5742      0.00000      0.00000      36.5981      8.43183
       3014.2636      0.00000      0.00000      63.6134      9.80839
       3019.9530      0.00000      0.00000      31.6354      8.11159
       3025.6425      0.00000      0.00000      23.0565      8.44036
       3031.3319      0.00000      0.00000      38.7312      8.65005
       3037.0213      0.00000      0.00000      64.4224      9.72449
       3042.7107      0.00000      0.00000      54.4566      9.39886
       3048.4001      0.00000      0.00000      21.3328      7.80433
       3054.0896      0.00000      0.00000      52.0123      9.30931
       3059.7790      0.00000      0.00000      64.2047      9.88594
       3065.4684      0.00000      0.00000      56.7140      9.59933
       3071.1578      0.00000      0.00000      52.9393      9.84151
       3076.8472      0.00000      0.00000      80.9448      10.8583
       3082.5367      0.00000      0.00000      95.5390      11.5439
       3088.2261      0.00000      0.00000      90.3010      11.3677
       3093.9155      0.00000      0.00000      103.664      11.7843
       3099.6049      0.00000      0.00000      113.059      12.1741
       3105.2943      0.00000      0.00000      94.6633      11.4336
       3110.9838      0.00000      0.00000      93.3068      11.5835
       3116.6732      0.00000      0.00000      122.644      12.6978
       3122.3626      0.00000      0.00000      137.389      13.1890
       3128.0520      0.00000      0.00000      161.415      14.0591
       3133.7414      0.00000      0.00000      187.035      14.9770
       3139.4309      0.00000      0.00000      210.341      15.6995
       3145.1203      0.00000      0.00000      227.778      16.1512
       3150.8097      0.00000      0.00000      258.266      17.2974
       3156.4991      0.00000      0.00000      249.516      17.0322
       3162.1885      0.00000      0.00000      271.209      17.6930
       3167.8780      0.00000      0.00000      289.255      18.1045
       3173.5674      0.00000      0.00000      266.992      17.5594
       3179.2568      0.00000      0.00000      273.429      17.5629
       3184.9462      0.00000      0.00000      313.984      18.8759
       3190.6356      0.00000      0.00000      327.741      19.0477
       3196.3250      0.00000      0.00000      343.310      19.4859
       3202.0145      0.00000      0.00000      364.293      20.2367
       3207.7039      0.00000      0.00000      368.624      20.0978
       3213.3933      0.00000      0.00000      378.605      20.4837
       3219.0827      0.00000      0.00000      321.752      19.1587
       3224.7721      0.00000      0.00000      358.634      20.1538
       3230.4616      0.00000      0.00000      370.029      20.5172
       3236.1510      0.00000      0.00000      414.114      21.5117
       3241.8404      0.00000      0.00000      461.727      22.4489
       3247.5298      0.00000      0.00000      508.300      23.3637
       3253.2192  3.56594e-14  1.61216e-15      526.128      23.7863
       3258.9087  3.93757e-14  1.67267e-15      595.169      25.2825
       3264.5981  4.41645e-14  1.74032e-15      683.691      26.9412
       3270.2875  4.37606e-14  1.72096e-15      693.510      27.2735
       3275.9769  4.44316e-14  1.70251e-15      721.875      27.6604
       3281.6663  4.66795e-14  1.72693e-15      778.116      28.7868
       3287.3558  4.76256e-14  1.71866e-15      814.907      29.4074
       3293.0452  4.67503e-14  1.67288e-15      821.053      29.3800
       3298.7346  4.63983e-14  1.64726e-15      835.964      29.6789
       3304.4240  3.93737e-14  1.50192e-15      726.120      27.6980
       3310.1134  3.54593e-14  1.42022e-15      668.536      26.7763
       3315.8029  3.20495e-14  1.34310e-15      617.210      25.8654
       3321.4923  3.06657e-14  1.30163e-15      602.614      25.5784
       3327.1817  2.79880e-14  1.22562e-15      561.129      24.5723
       3332.8711  2.51713e-14  1.15421e-15      515.071      23.6182
       3338.5605  2.51496e-14  1.14899e-15      525.598      24.0126
       3344.2500  2.60821e-14  1.15168e-15      556.985      24.5941
       3349.9394  2.75654e-14  1.15828e-15      601.543      25.2765
       3355.6288  2.86355e-14  1.17234e-15      637.839      26.1131
       3361.3182  2.93426e-14  1.17493e-15      667.647      26.7338
       3367.0076  2.96907e-14  1.16646e-15      690.638      27.1331
       3372.6971  3.12075e-14  1.18191e-15      742.415      28.1173
       3378.3865  3.23875e-14  1.18907e-15      787.883      28.9262
       3384.0759  3.23958e-14  1.17576e-15      805.730      29.2428
       3389.7653  3.33176e-14  1.17680e-15      847.033      29.9179
       3395.4547  3.31832e-14  1.16154e-15      861.437      30.1536
       3401.1442  3.30759e-14  1.14804e-15      875.479      30.3873
       3406.8336  3.31655e-14  1.13585e-15      893.158      30.5889
       3412.5230  3.29913e-14  1.12135e-15      903.060      30.6943
       3418.2124  3.31991e-14  1.11839e-15      923.864      31.1226
       3423.9018  3.28221e-14  1.10428e-15      928.641      31.2437
       3429.5913  3.42477e-14  1.11545e-15      985.150      32.0863
       3435.2807  3.54565e-14  1.12713e-15      1036.89      32.9619
       3440.9701  3.76061e-14  1.14828e-15      1117.94      34.1355
       3446.6595  3.78793e-14  1.14348e-15      1144.30      34.5437
       3452.3489  3.70054e-14  1.12561e-15      1135.32      34.5336
       3458.0384  3.81586e-14  1.13043e-15      1188.36      35.2044
       3463.7278  3.89227e-14  1.13347e-15      1230.28      35.8272
       3469.4172  3.97346e-14  1.13044e-15      1274.62      36.2628
       3475.1066  3.90262e-14  1.11415e-15      1269.96      36.2558
       3480.7960  3.94742e-14  1.11375e-15      1302.19      36.7407
       3486.4855  4.18555e-14  1.13595e-15      1398.85      37.9645
       3492.1749  4.12600e-14  1.12584e-15      1396.94      38.1175
       3497.8643  4.30567e-14  1.14020e-15      1477.32      39.1214
       3503.5537  4.32478e-14  1.13371e-15      1503.45      39.4118
       3509.2431  4.15592e-14  1.10478e-15      1463.51      38.9050
       3514.9326  3.88592e-14  1.06859e-15      1385.67      38.1047
       3520.6220  3.54144e-14  1.00737e-15      1278.35      36.3631
       3526.3114  3.11606e-14  9.41613e-16      1138.69      34.4089
       3532.0008  2.75883e-14  8.86445e-16      1020.74      32.7976
       3537.6902  2.52010e-14  8.43997e-16      943.400      31.5951
       3543.3797  2.32879e-14  8.08707e-16      881.701      30.6184
       3549.0691  2.13753e-14  7.74455e-16      818.671      29.6616
       3554.7585  2.21783e-14  7.79930e-16      859.957      30.2415
       3560.4479  2.30137e-14  7.87077e-16      904.213      30.9244
       3566.1373  2.47026e-14  8.08684e-16      984.103      32.2163
       3571.8267  2.59434e-14  8.24110e-16      1048.19      33.2965
       3577.5162  2.72844e-14  8.33487e-16      1116.67      34.1122
       3583.2056  2.89916e-14  8.53470e-16      1202.65      35.4042
       3588.8950  2.95488e-14  8.55615e-16      1243.04      35.9934
       3594.5844  2.95181e-14  8.44745e-16      1259.80      36.0528
       3600.2738  2.79580e-14  8.17159e-16      1210.87      35.3915
       3605.9633  2.83022e-14  8.20866e-16      1243.84      36.0758
       3611.6527  2.85214e-14  8.19570e-16      1271.74      36.5439
       3617.3421  2.81831e-14  8.07772e-16      1274.94      36.5418
       3623.0315  3.08480e-14  8.40102e-16      1416.15      38.5668
       3628.7209  3.00001e-14  8.21561e-16      1398.28      38.2922
       3634.4104  2.92412e-14  8.00632e-16      1384.65      37.9121
       3640.0998  2.83123e-14  7.80292e-16      1365.36      37.6297
       3645.7892  2.68499e-14  7.51488e-16      1320.55      36.9603
       3651.4786  2.50543e-14  7.24641e-16      1257.59      36.3731
       3657.1680  2.55430e-14  7.21821e-16      1309.21      36.9970
       3662.8575  2.49495e-14  7.04384e-16      1306.18      36.8764
       3668.5469  2.39111e-14  6.80566e-16      1278.49      36.3889
       3674.2363  2.44951e-14  6.85024e-16      1337.23      37.3967
       3679.9257  2.53693e-14  6.87464e-16      1413.68      38.3083
       3685.6151  2.73543e-14  7.03898e-16      1555.69      40.0320
       3691.3046  2.76461e-14  7.02795e-16      1604.50      40.7881
       3696.9940  2.57444e-14  6.71998e-16      1524.51      39.7938
       3702.6834  2.56439e-14  6.64671e-16      1549.11      40.1519
       3708.3728  2.63312e-14  6.65285e-16      1620.76      40.9502
       3714.0622  2.72399e-14  6.70520e-16      1707.56      42.0322
       3719.7517  2.83758e-14  6.76627e-16      1811.19      43.1883
       3725.4411  2.67620e-14  6.54212e-16      1739.42      42.5212
       3731.1305  2.68297e-14  6.52678e-16      1776.13      43.2073
       3736.8199  2.82752e-14  6.62085e-16      1906.93      44.6521
       3742.5093  3.02353e-14  6.73788e-16      2077.36      46.2937
       3748.1988  3.16070e-14  6.81971e-16      2211.65      47.7198
       3753.8882  3.56103e-14  7.18293e-16      2536.36      51.1608
       3759.5776  3.91072e-14  7.43294e-16      2833.78      53.8604
       3765.2670  4.30127e-14  7.70669e-16      3169.52      56.7890
       3770.9564  4.09415e-14  7.45302e-16      3066.93      55.8307
       3776.6459  3.70556e-14  7.06548e-16      2820.99      53.7886
       3782.3353  3.11674e-14  6.41767e-16      2410.66      49.6378
       3788.0247  2.82964e-14  6.10750e-16      2223.14      47.9843
       3793.7141  2.40172e-14  5.61274e-16      1916.28      44.7827
       3799.4035  2.36812e-14  5.49853e-16      1918.07      44.5357
       3805.0930  2.37558e-14  5.47285e-16      1952.21      44.9749
       3810.7824  2.31231e-14  5.38594e-16      1927.07      44.8861
       3816.4718  2.36826e-14  5.39356e-16      2000.93      45.5699
       3822.1612  2.38413e-14  5.37667e-16      2041.54      46.0406
       3827.8506  2.51833e-14  5.47868e-16      2185.10      47.5372
       3833.5401  2.83555e-14  5.77341e-16      2492.84      50.7561
       3839.2295  3.03372e-14  5.93333e-16      2702.34      52.8523
       3844.9189  3.01628e-14  5.86176e-16      2722.22      52.9027
       3850.6083  2.88291e-14  5.69780e-16      2635.41      52.0864
       3856.2977  2.71155e-14  5.50076e-16      2509.81      50.9151
       3861.9872  2.59522e-14  5.35239e-16      2431.88      50.1551
       3867.6766  2.55142e-14  5.27036e-16      2417.25      49.9320
       3873.3660  2.37068e-14  5.07126e-16      2271.34      48.5875
       3879.0554  2.42803e-14  5.07766e-16      2352.71      49.2015
       3884.7448  2.43765e-14  5.08086e-16      2388.63      49.7869
       3890.4343  2.57724e-14  5.19650e-16      2553.53      51.4868
       3896.1237  2.86746e-14  5.42962e-16      2872.77      54.3968
       3901.8131  2.92885e-14  5.46295e-16      2967.38      55.3481
       3907.5025  2.85673e-14  5.37108e-16      2927.12      55.0341
       3913.1919  2.72701e-14  5.24240e-16      2825.84      54.3238
       3918.8814  2.70286e-14  5.15300e-16      2832.55      54.0027
       3924.5708  3.11338e-14  5.50378e-16      3300.10      58.3385
       3930.2602  3.76423e-14  5.97643e-16      4036.26      64.0834
       3935.9496  4.09729e-14  6.20223e-16      4444.93      67.2847
       3941.6390  3.88593e-14  6.01314e-16      4265.45      66.0041
       3947.3284  3.43941e-14  5.62587e-16      3819.72      62.4795
       3953.0179  2.71271e-14  5.00209e-16      3047.48      56.1939
       3958.7073  2.81565e-14  5.04598e-16      3199.00      57.3300
       3964.3967  3.49790e-14  5.56792e-16      4018.99      63.9739
       3970.0861  3.98145e-14  5.90462e-16      4626.73      68.6159
       3975.7755  4.40941e-14  6.18045e-16      5182.93      72.6465
       3981.4650  4.11110e-14  5.96686e-16      4887.24      70.9335
       3987.1544  3.67508e-14  5.61709e-16      4417.69      67.5213
       3992.8438  3.13929e-14  5.18156e-16      3815.79      62.9817
       3998.5332  2.87590e-14  4.94308e-16      3535.59      60.7695
       4004.2226  2.64602e-14  4.72000e-16      3290.86      58.7027
       4009.9121  2.59315e-14  4.65207e-16      3262.59      58.5305
       4015.6015  2.55895e-14  4.58888e-16      3256.11      58.3906
       4021.2909  2.69369e-14  4.67347e-16      3465.08      60.1180
       4026.9803  2.56189e-14  4.51787e-16      3330.27      58.7291
       4032.6697  2.40574e-14  4.37634e-16      3159.31      57.4718
       4038.3592  2.26091e-14  4.21955e-16      2999.57      55.9813
       4044.0486  2.15552e-14  4.09916e-16      2889.78      54.9550
       4049.7380  2.12317e-14  4.05406e-16      2876.44      54.9236
       4055.4274  2.32932e-14  4.22501e-16      3188.94      57.8422
       4061.1168  2.43343e-14  4.29232e-16      3366.27      59.3775
       4066.8063  2.49319e-14  4.30435e-16      3484.56      60.1590
       4072.4957  2.38485e-14  4.19670e-16      3367.26      59.2545
       4078.1851  2.24024e-14  4.07465e-16      3194.97      58.1115
       4083.8745  2.25798e-14  4.05445e-16      3251.42      58.3826
       4089.5639  2.41900e-14  4.16058e-16      3515.33      60.4624
       4095.2534  2.86945e-14  4.50453e-16      4206.51      66.0349
       4100.9428  3.35492e-14  4.83479e-16      4959.85      71.4767
       4106.6322  3.73499e-14  5.07140e-16      5567.88      75.6012
       4112.3216  3.70560e-14  5.04485e-16      5569.43      75.8229
       4118.0110  3.59633e-14  4.94614e-16      5447.58      74.9221
       4123.7005  3.31066e-14  4.72173e-16      5052.36      72.0579
       4129.3899  3.07264e-14  4.55711e-16      4723.59      70.0566
       4135.0793  2.88131e-14  4.38628e-16      4462.20      67.9288
       4140.7687  2.69247e-14  4.22438e-16      4200.96      65.9115
       4146.4581  2.64906e-14  4.17728e-16      4164.62      65.6715
       4152.1476  2.73081e-14  4.21576e-16      4325.39      66.7742
       4157.8370  3.17731e-14  4.53242e-16      5069.56      72.3170
       4163.5264  3.92737e-14  5.00895e-16      6311.02      80.4905
       4169.2158  4.61911e-14  5.40972e-16      7473.19      87.5232
       4174.9052  5.18067e-14  5.70334e-16      8437.93      92.8921
       4180.5947  5.10590e-14  5.63961e-16      8373.88      92.4919
       4186.2841  4.52867e-14  5.30073e-16      7480.92      87.5628
       4191.9735  3.69040e-14  4.77167e-16      6140.89      79.4016
       4197.6629  3.10876e-14  4.38412e-16      5210.75      73.4844
       4203.3523  2.77202e-14  4.11789e-16      4680.47      69.5292
       4209.0418  2.72278e-14  4.07047e-16      4631.68      69.2420
       4214.7312  3.05984e-14  4.28371e-16      5244.98      73.4284
       4220.4206  3.88421e-14  4.78797e-16      6710.51      82.7187
       4226.1100  4.84698e-14  5.31923e-16      8439.87      92.6218
       4231.7994  5.44381e-14  5.62467e-16      9552.25      98.6960
       4237.4889  5.66703e-14  5.72037e-16      10018.6      101.129
       4243.1783  5.49449e-14  5.60754e-16      9785.21      99.8655
       4248.8677  5.00388e-14  5.33378e-16      8977.02      95.6886
       4254.5571  4.59303e-14  5.10262e-16      8301.50      92.2255
       4260.2465  4.34482e-14  4.94977e-16      7907.12      90.0808
       4265.9360  4.24865e-14  4.88152e-16      7785.58      89.4531
       4271.6254  4.23840e-14  4.85175e-16      7821.05      89.5286
       4277.3148  4.14439e-14  4.77897e-16      7700.97      88.8011
       4283.0042  4.22816e-14  4.80771e-16      7911.08      89.9544
       4288.6936  4.58318e-14  4.97429e-16      8635.36      93.7227
       4294.3831  5.05852e-14  5.21582e-16      9597.10      98.9555
       4300.0725  5.28116e-14  5.30731e-16      10085.1      101.350
       4305.7619  5.13238e-14  5.21381e-16      9861.77      100.182
       4311.4513  4.68837e-14  4.97672e-16      9062.18      96.1954
       4317.1407  4.03908e-14  4.62311e-16      7852.86      89.8835
       4322.8301  3.67324e-14  4.40143e-16      7183.03      86.0701
       4328.5196  4.08888e-14  4.61670e-16      8041.03      90.7902
       4334.2090  5.20310e-14  5.17789e-16      10288.1      102.382
       4339.8984  6.57793e-14  5.79803e-16      13078.2      115.276
       4345.5878  7.74887e-14  6.26970e-16      15494.0      125.364
       4351.2772  8.02571e-14  6.36306e-16      16141.8      127.978
       4356.9667  7.44122e-14  6.11384e-16      15056.8      123.709
       4362.6561  6.50943e-14  5.70384e-16      13252.8      116.126
       4368.3455  5.58830e-14  5.27776e-16      11446.9      108.109
       4374.0349  5.00405e-14  4.97848e-16      10309.4      102.567
       4379.7243  4.71014e-14  4.82128e-16      9756.58      99.8680
       4385.4138  4.69063e-14  4.80558e-16      9767.11      100.065
       4391.1032  4.74524e-14  4.81883e-16      9931.91      100.859
       4396.7926  4.73231e-14  4.79601e-16      9955.79      100.898
       4402.4820  4.75302e-14  4.79545e-16      10050.3      101.400
       4408.1714  4.80857e-14  4.81411e-16      10220.6      102.324
       4413.8609  4.70173e-14  4.74588e-16      10045.7      101.400
       4419.5503  4.42913e-14  4.59870e-16      9511.00      98.7513
       4425.2397  3.98439e-14  4.35589e-16      8597.65      93.9929
       4430.9291  3.60046e-14  4.13547e-16      7807.04      89.6712
       4436.6185  3.42120e-14  4.02641e-16      7455.44      87.7431
       4442.3080  3.40126e-14  4.00714e-16      7450.12      87.7723
       4447.9974  3.59780e-14  4.10504e-16      7921.97      90.3887
       4453.6868  3.94272e-14  4.28002e-16      8727.66      94.7429
       4459.3762  4.31586e-14  4.46385e-16      9602.12      99.3135
       4465.0656  4.61629e-14  4.60320e-16      10319.8      102.905
       4470.7551  4.75664e-14  4.65980e-16      10682.3      104.648
       4476.4445  4.99515e-14  4.75881e-16      11267.4      107.343
       4482.1339  5.36560e-14  4.92056e-16      12154.9      111.467
       4487.8233  5.71270e-14  5.06306e-16      12995.4      115.176
       4493.5127  6.25979e-14  5.28299e-16      14300.0      120.686
       4499.2022  6.86794e-14  5.52137e-16      15757.2      126.677
       4504.8916  7.72855e-14  5.83666e-16      17808.7      134.493
       4510.5810  8.64236e-14  6.15357e-16      20001.7      142.417
       4516.2704  9.10531e-14  6.30490e-16      21165.6      146.559
       4521.9598  9.00837e-14  6.25544e-16      21033.6      146.058
       4527.6493  8.47796e-14  6.05631e-16      19880.7      142.020
       4533.3387  7.98450e-14  5.86538e-16      18804.9      138.140
       4539.0281  8.14466e-14  5.91216e-16      19265.4      139.846
       4544.7175  8.49124e-14  6.02620e-16      20172.0      143.160
       4550.4069  8.94002e-14  6.16768e-16      21328.8      147.147
       4556.0964  8.89049e-14  6.13550e-16      21300.0      146.995
       4561.7858  8.61081e-14  6.02682e-16      20714.1      144.981
       4567.4752  8.52966e-14  5.98602e-16      20598.5      144.558
       4573.1646  8.91918e-14  6.11034e-16      21615.9      148.086
       4578.8540  9.37153e-14  6.24832e-16      22792.8      151.967
       4584.5435  9.53601e-14  6.29391e-16      23273.8      153.610
       4590.2329  8.91615e-14  6.07607e-16      21835.9      148.805
       4595.9223  7.60951e-14  5.60847e-16      18699.1      137.819
       4601.6117  6.07748e-14  5.00892e-16      14983.9      123.494
       4607.3011  5.13721e-14  4.61177e-16      12707.0      114.073
       4612.9906  5.38898e-14  4.71142e-16      13372.7      116.914
       4618.6800  6.34591e-14  5.09709e-16      15796.3      126.877
       4624.3694  7.22386e-14  5.42279e-16      18036.7      135.397
       4630.0588  7.60902e-14  5.55852e-16      19055.6      139.204
       4635.7482  7.26893e-14  5.42513e-16      18258.8      136.274
       4641.4377  6.56033e-14  5.15125e-16      16527.4      129.775
       4647.1271  5.77561e-14  4.82957e-16      14592.8      122.025
       4652.8165  5.34406e-14  4.64343e-16      13539.6      117.645
       4658.5059  5.08804e-14  4.52974e-16      12926.4      115.080
       4664.1953  4.88232e-14  4.43368e-16      12437.9      112.950
       4669.8847  4.64329e-14  4.31980e-16      11864.3      110.377
       4675.5742  4.45920e-14  4.22603e-16      11432.9      108.351
       4681.2636  4.21905e-14  4.10508e-16      10860.1      105.667
       4686.9530  4.02216e-14  4.00230e-16      10399.7      103.483
       4692.6424  3.98993e-14  3.97601e-16      10366.0      103.298
       4698.3318  3.84953e-14  3.89788e-16      10050.9      101.771
       4704.0213  3.79940e-14  3.86437e-16      9970.36      101.408
       4709.7107  3.69734e-14  3.80421e-16      9753.51      100.354
       4715.4001  3.63227e-14  3.75554e-16      9634.32      99.6130
       4721.0895  3.73867e-14  3.80008e-16      9972.38      101.362
       4726.7789  3.90893e-14  3.87241e-16      10485.6      103.877
       4732.4684  3.90751e-14  3.86163e-16      10541.3      104.175
       4738.1578  3.69825e-14  3.74787e-16      10034.0      101.686
       4743.8472  3.45372e-14  3.61387e-16      9425.61      98.6269
       4749.5366  3.24790e-14  3.49355e-16      8916.03      95.9037
       4755.2260  3.18060e-14  3.45191e-16      8782.87      95.3207
       4760.9155  3.12431e-14  3.40635e-16      8678.54      94.6200
       4766.6049  3.15193e-14  3.42108e-16      8807.46      95.5956
       4772.2943  3.23184e-14  3.44982e-16      9084.89      96.9766
       4777.9837  3.26432e-14  3.45592e-16      9231.70      97.7355
       4783.6731  3.35965e-14  3.48952e-16      9558.70      99.2820
       4789.3626  3.32777e-14  3.46735e-16      9523.60      99.2307
       4795.0520  3.42007e-14  3.50149e-16      9841.08      100.754
       4800.7414  3.59739e-14  3.58082e-16      10401.9      103.540
       4806.4308  3.76886e-14  3.65744e-16      10945.8      106.222
       4812.1202  3.88906e-14  3.70400e-16      11341.9      108.022
       4817.8097  4.07985e-14  3.78445e-16      11946.3      110.814
       4823.4991  4.19725e-14  3.82827e-16      12339.1      112.544
       4829.1885  4.31454e-14  3.87289e-16      12732.8      114.294
       4834.8779  4.45282e-14  3.92344e-16      13189.0      116.210
       4840.5673  5.11468e-14  4.18339e-16      15203.2      124.349
       4846.2568  7.15648e-14  4.91174e-16      21348.4      146.522
       4851.9462  1.02989e-13  5.88677e-16      30832.4      176.235
       4857.6356  1.27846e-13  6.55329e-16      38408.1      196.877
       4863.3250  1.37351e-13  6.78116e-16      41399.4      204.393
       4869.0144  1.34167e-13  6.69031e-16      40570.3      202.306
       4874.7039  1.17377e-13  6.24349e-16      35605.6      189.392
       4880.3933  9.01780e-14  5.46433e-16      27440.6      166.276
       4886.0827  6.68885e-14  4.71206e-16      20415.7      143.821
       4891.7721  5.53806e-14  4.29403e-16      16953.8      131.454
       4897.4615  5.50551e-14  4.27477e-16      16900.6      131.225
       4903.1510  6.67557e-14  4.68251e-16      20545.1      144.111
       4908.8404  9.09965e-14  5.44843e-16      28074.9      168.099
       4914.5298  1.19361e-13  6.23547e-16      36913.1      192.835
       4920.2192  1.38659e-13  6.71523e-16      42982.1      208.162
       4925.9086  1.44466e-13  6.84703e-16      44883.8      212.728
       4931.5981  1.37749e-13  6.67919e-16      42884.7      207.940
       4937.2875  1.16578e-13  6.13539e-16      36365.1      191.386
       4942.9769  8.76559e-14  5.31399e-16      27395.6      166.081
       4948.6663  6.27743e-14  4.50832e-16      19656.1      141.166
       4954.3557  4.67624e-14  3.89925e-16      14668.8      122.315
       4960.0452  3.66950e-14  3.46639e-16      11529.4      108.912
       4965.7346  3.16879e-14  3.22738e-16      9969.70      101.540
       4971.4240  3.09156e-14  3.18564e-16      9738.25      100.346
       4977.1134  3.44421e-14  3.35298e-16      10860.1      105.725
       4982.8028  4.29598e-14  3.72903e-16      13557.8      117.685
       4988.4923  5.26406e-14  4.12521e-16      16624.9      130.282
       4994.1817  6.37379e-14  4.52745e-16      20143.0      143.080
       4999.8711  8.54702e-14  5.21739e-16      27028.9      164.993
       5005.5605  1.20304e-13  6.17826e-16      38059.6      195.456
       5011.2499  1.53169e-13  6.97829e-16      48475.0      220.850
       5016.9394  1.73744e-13  7.43143e-16      55017.8      235.324
       5022.6288  1.79062e-13  7.54307e-16      56745.0      239.040
       5028.3182  1.67598e-13  7.29539e-16      53155.1      231.379
       5034.0076  1.42095e-13  6.71226e-16      45104.0      213.061
       5039.6970  1.10568e-13  5.91740e-16      35125.7      187.987
       5045.3864  8.68304e-14  5.25320e-16      27610.6      167.043
       5051.0759  7.24436e-14  4.80431e-16      23060.7      152.934
       5056.7653  6.39045e-14  4.51718e-16      20366.0      143.960
       5062.4547  5.82445e-14  4.31371e-16      18583.4      137.633
       5068.1441  5.36062e-14  4.14004e-16      17123.1      132.243
       5073.8335  4.96322e-14  3.98520e-16      15872.9      127.451
       5079.5230  4.58285e-14  3.83104e-16      14676.5      122.688
       5085.2124  4.29864e-14  3.70758e-16      13787.8      118.920
       5090.9018  4.08114e-14  3.61210e-16      13113.0      116.059
       5096.5912  3.94619e-14  3.55133e-16      12703.8      114.326
       5102.2806  3.93629e-14  3.54305e-16      12699.1      114.304
       5107.9701  4.04988e-14  3.58694e-16      13096.5      115.994
       5113.6595  4.28829e-14  3.68471e-16      13901.5      119.448
       5119.3489  4.64516e-14  3.82548e-16      15095.4      124.317
       5125.0383  5.03700e-14  3.97619e-16      16409.3      129.534
       5130.7277  5.74374e-14  4.23120e-16      18769.5      138.268
       5136.4172  6.51072e-14  4.49371e-16      21345.6      147.328
       5142.1066  7.20151e-14  4.71601e-16      23687.9      155.124
       5147.7960  8.82356e-14  5.20115e-16      29120.6      171.655
       5153.4854  1.22905e-13  6.11243e-16      40699.0      202.409
       5159.1748  1.65155e-13  7.06991e-16      54876.5      234.913
       5164.8643  1.91022e-13  7.59208e-16      63687.2      253.122
       5170.5537  1.99236e-13  7.73965e-16      66652.3      258.921
       5176.2431  1.97352e-13  7.69213e-16      66247.0      258.210
       5181.9325  1.85331e-13  7.44317e-16      62421.0      250.692
       5187.6219  1.65977e-13  7.03307e-16      56089.8      237.674
       5193.3114  1.43137e-13  6.52619e-16      48533.8      221.286
       5199.0008  1.25601e-13  6.10697e-16      42728.5      207.754
       5204.6902  1.07386e-13  5.63996e-16      36652.6      192.501
       5210.3796  9.07020e-14  5.17961e-16      31055.0      177.342
       5216.0690  8.35421e-14  4.96595e-16      28687.4      170.525
       5221.7585  8.93468e-14  5.12634e-16      30764.1      176.512
       5227.4479  1.01228e-13  5.44682e-16      34939.7      188.001
       5233.1373  1.07295e-13  5.59966e-16      37111.5      193.682
       5238.8267  1.07481e-13  5.60058e-16      37254.1      194.122
       5244.5161  1.04157e-13  5.50847e-16      36176.7      191.325
       5250.2056  9.54420e-14  5.27006e-16      33197.8      183.309
       5255.8950  9.52794e-14  5.26239e-16      33181.1      183.263
       5261.5844  1.05627e-13  5.53326e-16      36826.0      192.913
       5267.2738  1.21669e-13  5.93094e-16      42466.9      207.012
       5272.9632  1.32036e-13  6.17491e-16      46137.6      215.772
       5278.6527  1.33095e-13  6.19605e-16      46558.2      216.744
       5284.3421  1.23905e-13  5.97965e-16      43387.4      209.387
       5290.0315  1.10474e-13  5.64391e-16      38723.7      197.831
       5295.7209  1.06576e-13  5.54256e-16      37389.4      194.446
       5301.4103  1.19186e-13  5.85342e-16      41841.7      205.492
       5307.0998  1.43054e-13  6.41005e-16      50250.7      225.165
       5312.7892  1.60362e-13  6.78180e-16      56361.0      238.355
       5318.4786  1.65540e-13  6.88820e-16      58215.2      242.237
       5324.1680  1.55841e-13  6.68067e-16      54836.2      235.074
       5329.8574  1.34609e-13  6.20762e-16      47397.8      218.580
       5335.5469  1.09385e-13  5.59841e-16      38550.8      197.305
       5341.2363  9.03786e-14  5.09410e-16      31887.3      179.729
       5346.9257  8.33417e-14  4.89273e-16      29443.4      172.853
       5352.6151  8.40211e-14  4.90778e-16      29729.7      173.655
       5358.3045  8.52538e-14  4.94100e-16      30209.6      175.084
       5363.9940  8.45572e-14  4.91633e-16      30003.7      174.448
       5369.6834  8.10934e-14  4.81237e-16      28811.5      170.978
       5375.3728  7.32162e-14  4.57066e-16      26045.1      162.591
       5381.0622  6.34445e-14  4.25836e-16      22595.4      151.659
       5386.7516  5.70547e-14  4.03973e-16      20342.1      144.031
       5392.4411  5.36362e-14  3.91769e-16      19143.4      139.827
       5398.1305  5.32537e-14  3.90165e-16      19026.2      139.396
       5403.8199  5.52951e-14  3.97153e-16      19775.5      142.036
       5409.5093  5.88946e-14  4.09444e-16      21080.7      146.556
       5415.1987  6.34875e-14  4.24821e-16      22743.4      152.185
       5420.8881  6.67913e-14  4.35437e-16      23947.8      156.125
       5426.5776  6.75578e-14  4.37721e-16      24242.6      157.073
       5432.2670  6.45673e-14  4.27796e-16      23186.5      153.624
       5437.9564  5.99377e-14  4.12326e-16      21538.1      148.166
       5443.6458  5.50567e-14  3.95277e-16      19795.6      142.122
       5449.3352  5.19915e-14  3.84260e-16      18703.4      138.234
       5455.0247  5.10159e-14  3.80884e-16      18360.3      137.078
       5460.7141  5.21922e-14  3.85124e-16      18788.8      138.642
       5466.4035  5.41203e-14  3.91823e-16      19486.1      141.077
       5472.0929  5.53088e-14  3.96017e-16      19915.3      142.596
       5477.7823  5.52331e-14  3.95807e-16      19887.6      142.517
       5483.4718  5.48405e-14  3.94329e-16      19747.2      141.992
       5489.1612  5.46031e-14  3.93483e-16      19664.2      141.705
       5494.8506  5.57190e-14  3.97433e-16      20071.0      143.163
       5500.5400  5.78204e-14  4.04649e-16      20835.9      145.817
       5506.2294  6.08672e-14  4.14843e-16      21944.6      149.565
       5511.9189  6.58075e-14  4.30931e-16      23738.5      155.448
       5517.6083  7.25312e-14  4.51762e-16      26179.2      163.058
       5523.2977  7.98031e-14  4.73422e-16      28823.0      170.989
       5528.9871  8.50754e-14  4.88502e-16      30752.2      176.579
       5534.6765  8.51029e-14  4.88273e-16      30793.1      176.674
       5540.3660  8.19894e-14  4.79184e-16      29702.4      173.594
       5546.0554  7.74414e-14  4.65703e-16      28093.2      168.942
       5551.7448  7.34430e-14  4.53448e-16      26682.5      164.742
       5557.4342  7.52400e-14  4.58660e-16      27372.6      166.862
       5563.1236  8.20422e-14  4.79391e-16      29869.9      174.536
       5568.8131  8.96927e-14  5.03064e-16      32683.5      183.314
       5574.5025  9.26618e-14  5.13678e-16      33798.4      187.364
       5580.1919  9.00903e-14  5.05903e-16      32897.5      184.736
       5585.8813  8.32569e-14  4.83444e-16      30442.9      176.772
       5591.5707  7.29150e-14  4.50594e-16      26702.0      165.011
       5597.2602  6.07504e-14  4.10718e-16      22285.5      150.666
       5602.9496  5.10369e-14  3.76707e-16      18755.0      138.432
       5608.6390  4.54466e-14  3.55783e-16      16730.4      130.975
       5614.3284  4.11106e-14  3.38336e-16      15160.8      124.772
       5620.0178  3.74839e-14  3.23242e-16      13847.8      119.416
       5625.7073  3.54966e-14  3.14624e-16      13136.9      116.438
       5631.3967  3.52504e-14  3.13218e-16      13068.9      116.124
       5637.0861  3.81890e-14  3.25280e-16      14182.1      120.798
       5642.7755  4.46112e-14  3.50421e-16      16594.9      130.353
       5648.4649  5.34257e-14  3.82397e-16      19906.7      142.483
       5654.1544  6.12518e-14  4.08686e-16      22860.0      152.527
       5659.8438  6.67931e-14  4.26352e-16      24966.3      159.364
       5665.5332  7.00917e-14  4.36254e-16      26234.4      163.284
       5671.2226  7.46011e-14  4.49871e-16      27956.1      168.585
       5676.9120  7.98017e-14  4.64774e-16      29938.5      174.365
       5682.6015  8.22594e-14  4.71618e-16      30892.2      177.114
       5688.2909  8.21077e-14  4.71100e-16      30863.7      177.083
       5693.9803  7.96878e-14  4.63865e-16      29980.4      174.517
       5699.6697  7.74434e-14  4.57081e-16      29161.7      172.116
       5705.3591  7.65002e-14  4.54134e-16      28832.1      171.158
       5711.0486  7.76105e-14  4.57051e-16      29276.8      172.412
       5716.7380  8.07206e-14  4.65850e-16      30477.3      175.889
       5722.4274  8.33520e-14  4.73032e-16      31499.2      178.762
       5728.1168  8.83473e-14  4.86623e-16      33417.1      184.064
       5733.8062  9.43311e-14  5.02417e-16      35713.0      190.211
       5739.4957  9.91226e-14  5.14693e-16      37561.2      195.036
       5745.1851  1.00964e-13  5.19131e-16      38293.9      196.898
       5750.8745  9.96876e-14  5.15603e-16      37844.8      195.740
       5756.5639  9.76922e-14  5.10212e-16      37125.3      193.892
       5762.2533  9.41827e-14  5.00796e-16      35827.4      190.504
       5767.9428  8.88279e-14  4.86254e-16      33825.3      185.163
       5773.6322  8.11868e-14  4.64905e-16      30948.5      177.222
       5779.3216  7.21682e-14  4.38298e-16      27542.3      167.272
       5785.0110  6.54636e-14  4.17566e-16      25017.0      159.574
       5790.7004  6.27131e-14  4.08766e-16      24001.5      156.442
       5796.3898  5.95899e-14  3.98427e-16      22841.1      152.719
       5802.0793  5.89203e-14  3.95775e-16      22621.0      151.948
       5807.7687  5.80542e-14  3.92435e-16      22324.5      150.909
       5813.4581  5.77932e-14  3.91500e-16      22254.5      150.755
       5819.1475  5.73624e-14  3.89806e-16      22112.2      150.263
       5824.8369  5.47125e-14  3.80828e-16      21108.1      146.923
       5830.5264  5.10942e-14  3.68233e-16      19725.0      142.157
       5836.2158  4.58332e-14  3.48866e-16      17703.3      134.751
       5841.9052  4.13987e-14  3.31921e-16      16001.7      128.296
       5847.5946  4.31839e-14  3.38646e-16      16710.0      131.039
       5853.2840  5.36250e-14  3.76208e-16      20772.8      145.732
       5858.9735  5.92614e-14  3.95005e-16      22980.8      153.178
       5864.6629  5.69751e-14  3.87419e-16      22116.1      150.385
       5870.3523  5.87042e-14  3.92893e-16      22807.2      152.643
       5876.0417  7.66114e-14  4.47397e-16      29784.5      173.936
       5881.7311  1.00687e-13  5.12425e-16      39159.4      199.293
       5887.4206  1.11129e-13  5.38120e-16      43222.2      209.296
       5893.1100  1.15298e-13  5.48093e-16      44845.4      213.182
       5898.7994  1.29277e-13  5.79732e-16      50283.0      225.490
       5904.4888  1.40180e-13  6.03404e-16      54520.0      234.681
       5910.1782  1.36430e-13  5.95160e-16      53053.7      231.440
       5915.8677  1.24887e-13  5.69892e-16      48555.2      221.570
       5921.5571  1.13908e-13  5.44417e-16      44276.8      211.619
       5927.2465  1.05277e-13  5.23718e-16      40914.9      203.538
       5932.9359  9.84337e-14  5.06798e-16      38259.7      196.985
       5938.6253  9.29877e-14  4.92550e-16      36148.2      191.475
       5944.3148  8.81743e-14  4.79723e-16      34283.0      186.521
       5950.0042  8.53408e-14  4.72103e-16      33191.1      183.613
       5955.6936  8.30428e-14  4.65635e-16      32311.3      181.175
       5961.3830  8.04761e-14  4.58342e-16      31325.0      178.408
       5967.0724  8.07263e-14  4.59018e-16      31435.3      178.744
       5972.7619  8.14387e-14  4.60937e-16      31724.9      179.560
       5978.4513  8.32348e-14  4.65815e-16      32432.8      181.507
       5984.1407  8.47988e-14  4.69891e-16      33049.3      183.134
       5989.8301  8.48170e-14  4.69885e-16      33067.5      183.194
       5995.5195  8.25979e-14  4.63726e-16      32219.5      180.889
       6001.2090  7.85293e-14  4.51959e-16      30657.8      176.445
       6006.8984  7.30911e-14  4.35951e-16      28567.3      170.389
       6012.5878  6.82510e-14  4.21321e-16      26703.7      164.844
       6018.2772  6.47489e-14  4.10434e-16      25360.3      160.755
       6023.9666  6.33809e-14  4.05935e-16      24852.1      159.170
       6029.6561  6.19184e-14  4.01165e-16      24303.7      157.462
       6035.3455  6.15261e-14  3.99626e-16      24172.3      157.005
       6041.0349  6.17607e-14  4.00305e-16      24282.9      157.391
       6046.7243  6.17101e-14  3.99979e-16      24278.3      157.362
       6052.4137  6.33183e-14  4.04876e-16      24921.8      159.357
       6058.1032  6.53208e-14  4.10972e-16      25725.7      161.856
       6063.7926  6.82498e-14  4.19824e-16      26901.4      165.478
       6069.4820  7.04523e-14  4.26162e-16      27793.5      168.121
       6075.1714  7.20155e-14  4.30624e-16      28433.9      170.023
       6080.8608  7.28249e-14  4.32788e-16      28777.7      171.022
       6086.5503  7.23102e-14  4.31239e-16      28598.0      170.551
       6092.2397  7.11327e-14  4.27611e-16      28154.4      169.249
       6097.9291  6.94655e-14  4.22518e-16      27515.9      167.363
       6103.6185  6.79694e-14  4.17908e-16      26942.7      165.656
       6109.3079  6.99078e-14  4.23526e-16      27726.1      167.975
       6114.9974  7.63024e-14  4.41966e-16      30277.2      175.374
       6120.6868  8.55242e-14  4.67233e-16      33953.3      185.493
       6126.3762  9.69484e-14  4.96970e-16      38509.1      197.402
       6132.0656  1.10511e-13  5.30013e-16      43918.8      210.635
       6137.7550  1.25129e-13  5.63749e-16      49749.6      224.140
       6143.4445  1.34084e-13  5.83468e-16      53332.3      232.075
       6149.1339  1.36366e-13  5.88179e-16      54265.9      234.061
       6154.8233  1.33838e-13  5.82459e-16      53293.4      231.932
       6160.5127  1.26540e-13  5.66176e-16      50427.0      225.625
       6166.2021  1.16169e-13  5.42483e-16      46337.8      216.387
       6171.8915  1.05665e-13  5.17383e-16      42191.0      206.586
       6177.5810  9.72860e-14  4.96558e-16      38886.3      198.480
       6183.2704  9.21063e-14  4.83055e-16      36856.6      193.296
       6188.9598  8.79154e-14  4.71788e-16      35217.4      188.990
       6194.6492  8.33255e-14  4.59128e-16      33412.3      184.103
       6200.3386  7.74953e-14  4.42843e-16      31098.1      177.708
       6206.0281  7.38424e-14  4.32445e-16      29642.9      173.598
       6211.7175  7.43599e-14  4.33795e-16      29848.2      174.126
       6217.4069  8.03390e-14  4.50554e-16      32236.8      180.790
       6223.0963  9.38342e-14  4.86497e-16      37632.8      195.113
       6228.7857  1.12438e-13  5.32183e-16      45068.8      213.317
       6234.4752  1.30677e-13  5.73844e-16      52346.6      229.870
       6240.1646  1.42821e-13  6.00093e-16      57172.4      240.222
       6245.8540  1.45396e-13  6.05716e-16      58162.5      242.304
       6251.5434  1.34348e-13  5.82342e-16      53709.9      232.810
       6257.2328  1.23453e-13  5.58959e-16      49327.5      223.340
       6262.9223  1.13932e-13  5.36967e-16      45498.8      214.438
       6268.6117  1.02907e-13  5.10818e-16      41075.5      203.895
       6274.3011  1.00442e-13  5.04983e-16      40071.7      201.465
       6279.9905  1.07435e-13  5.22115e-16      42837.9      208.184
       6285.6799  1.22253e-13  5.56734e-16      48715.3      221.847
       6291.3694  1.41027e-13  5.98386e-16      56159.2      238.287
       6297.0588  1.56129e-13  6.30512e-16      62135.1      250.927
       6302.7482  1.63901e-13  6.46138e-16      65197.2      257.023
       6308.4376  1.60844e-13  6.39531e-16      63952.0      254.279
       6314.1270  1.49224e-13  6.15706e-16      59308.8      244.712
       6319.8165  1.32105e-13  5.79317e-16      52497.8      230.217
       6325.5059  1.15101e-13  5.41101e-16      45754.4      215.096
       6331.1953  1.04318e-13  5.15406e-16      41498.2      205.031
       6336.8847  1.01190e-13  5.07572e-16      40290.9      202.099
       6342.5741  1.02400e-13  5.10243e-16      40809.2      203.346
       6348.2636  1.06881e-13  5.20920e-16      42631.3      207.777
       6353.9530  1.14094e-13  5.37967e-16      45548.5      214.767
       6359.6424  1.21423e-13  5.54789e-16      48518.4      221.684
       6365.3318  1.25970e-13  5.64821e-16      50379.4      225.889
       6371.0212  1.27051e-13  5.66745e-16      50856.2      226.857
       6376.7107  1.23972e-13  5.59414e-16      49666.5      224.117
       6382.4001  1.17795e-13  5.45192e-16      47233.2      218.610
       6388.0895  1.09215e-13  5.24901e-16      43825.9      210.634
       6393.7789  1.02955e-13  5.09732e-16      41338.5      204.669
       6399.4683  1.01058e-13  5.05032e-16      40594.7      202.870
       6405.1578  1.03084e-13  5.09897e-16      41422.7      204.894
       6410.8472  1.08677e-13  5.23197e-16      43684.6      210.309
       6416.5366  1.16582e-13  5.41644e-16      46883.0      217.821
       6422.2260  1.22861e-13  5.55843e-16      49427.9      223.619
       6427.9154  1.25147e-13  5.60908e-16      50360.6      225.717
       6433.6049  1.32058e-13  5.75883e-16      53149.5      231.777
       6439.2943  1.47606e-13  6.08407e-16      59418.5      244.913
       6444.9837  1.63813e-13  6.40668e-16      65954.2      257.946
       6450.6731  1.73301e-13  6.58899e-16      69791.6      265.351
       6456.3625  1.75208e-13  6.62480e-16      70586.3      266.893
       6462.0520  1.73331e-13  6.58817e-16      69866.0      265.555
       6467.7414  1.65107e-13  6.43044e-16      66594.8      259.368
       6473.4308  1.51384e-13  6.15761e-16      61100.3      248.529
       6479.1202  1.35945e-13  5.83564e-16      54897.8      235.656
       6484.8096  1.26691e-13  5.63525e-16      51175.1      227.627
       6490.4991  1.22279e-13  5.53934e-16      49391.2      223.745
       6496.1885  1.23280e-13  5.56374e-16      49783.5      224.678
       6501.8779  1.26111e-13  5.62665e-16      50909.9      227.143
       6507.5673  1.30247e-13  5.71779e-16      52564.1      230.753
       6513.2567  1.49354e-13  6.11612e-16      60262.0      246.775
       6518.9462  1.88241e-13  6.85588e-16      75944.5      276.595
       6524.6356  2.37891e-13  7.70147e-16      95972.4      310.700
       6530.3250  3.17127e-13  8.88021e-16      127934.      358.241
       6536.0144  5.31727e-13  1.14538e-15      214491.      462.031
       6541.7038  9.01891e-13  1.49114e-15      363811.      601.505
       6547.3932  9.93079e-13  1.57022e-15      400654.      633.500
       6553.0827  9.98432e-13  1.57432e-15      402901.      635.291
       6558.7721  1.00581e-12  1.58031e-15      405884.      637.717
       6564.4615  1.01303e-12  1.58615e-15      408692.      639.908
       6570.1509  1.00765e-12  1.58220e-15      406301.      637.967
       6575.8403  1.00291e-12  1.57894e-15      404144.      636.264
       6581.5298  1.00600e-12  1.58172e-15      405213.      637.111
       6587.2192  9.97905e-13  1.57563e-15      401829.      634.465
       6592.9086  8.88659e-13  1.48708e-15      357754.      598.666
       6598.5980  6.01283e-13  1.22117e-15      242031.      491.548
       6604.2874  3.94722e-13  9.90464e-16      158897.      398.717
       6609.9769  2.76569e-13  8.30287e-16      111374.      334.355
       6615.6663  2.08740e-13  7.22181e-16      84105.5      290.981
       6621.3557  1.69547e-13  6.51459e-16      68358.0      262.655
       6627.0451  1.46330e-13  6.05606e-16      59030.6      244.307
       6632.7345  1.31059e-13  5.73390e-16      52890.1      231.396
       6638.4240  1.19081e-13  5.46801e-16      48065.3      220.708
       6644.1134  1.12312e-13  5.31124e-16      45340.3      214.415
       6649.8028  1.02739e-13  5.08255e-16      41486.7      205.236
       6655.4922  9.72050e-14  4.94504e-16      39264.1      199.745
       6661.1816  9.24590e-14  4.82348e-16      37351.2      194.857
       6666.8711  9.00308e-14  4.75940e-16      36364.6      192.238
       6672.5605  8.86281e-14  4.72511e-16      35785.7      190.787
       6678.2499  9.04081e-14  4.76939e-16      36493.1      192.516
       6683.9393  9.11693e-14  4.79207e-16      36797.7      193.417
       6689.6287  9.21441e-14  4.81511e-16      37199.4      194.390
       6695.3182  9.06096e-14  4.77432e-16      36593.8      192.816
       6701.0076  9.06723e-14  4.77469e-16      36628.4      192.881
       6706.6970  9.05691e-14  4.77177e-16      36587.5      192.767
       6712.3864  8.99004e-14  4.75833e-16      36306.9      192.168
       6718.0758  8.79568e-14  4.70891e-16      35509.0      190.103
       6723.7653  8.38686e-14  4.59812e-16      33845.5      185.559
       6729.4547  7.88158e-14  4.45955e-16      31794.4      179.899
       6735.1441  7.61363e-14  4.38450e-16      30701.0      176.799
       6740.8335  7.66773e-14  4.39993e-16      30903.0      177.329
       6746.5229  8.14857e-14  4.53350e-16      32828.6      182.644
       6752.2124  8.68606e-14  4.67889e-16      34989.4      188.476
       6757.9018  9.06931e-14  4.77862e-16      36528.2      192.467
       6763.5912  9.65891e-14  4.93125e-16      38893.6      198.567
       6769.2806  9.75218e-14  4.95378e-16      39254.0      199.397
       6774.9700  9.98853e-14  5.01578e-16      40185.0      201.791
       6780.6595  1.00915e-13  5.04227e-16      40579.5      202.759
       6786.3489  1.01100e-13  5.04542e-16      40640.8      202.819
       6792.0383  1.02415e-13  5.08054e-16      41151.8      204.145
       6797.7277  1.02524e-13  5.08562e-16      41152.3      204.132
       6803.4171  1.01411e-13  5.06431e-16      40620.7      202.853
       6809.1066  9.98490e-14  5.03473e-16      39859.5      200.985
       6814.7960  1.00544e-13  5.05797e-16      40001.7      201.233
       6820.4854  9.97244e-14  5.04776e-16      39547.2      200.177
       6826.1748  9.99479e-14  5.06321e-16      39516.4      200.184
       6831.8642  9.80057e-14  5.02265e-16      38642.9      198.039
       6837.5537  9.43724e-14  4.93491e-16      37113.3      194.072
       6843.2431  9.21397e-14  4.88170e-16      36144.1      191.497
       6848.9325  8.79089e-14  4.77472e-16      34397.2      186.827
       6854.6219  8.48056e-14  4.69650e-16      33099.8      183.305
       6860.3113  8.17403e-14  4.61895e-16      31825.8      179.840
       6866.0008  7.57269e-14  4.45276e-16      29412.9      172.949
       6871.6902  6.76959e-14  4.21520e-16      26232.1      163.339
       6877.3796  7.02137e-14  4.29691e-16      27153.3      166.172
       6883.0690  7.46152e-14  4.43227e-16      28805.5      171.110
       6888.7584  7.81304e-14  4.53763e-16      30116.0      174.907
       6894.4478  7.91977e-14  4.57261e-16      30484.8      176.009
       6900.1373  8.19548e-14  4.65167e-16      31506.3      178.826
       6905.8267  8.34591e-14  4.69742e-16      32048.0      180.379
       6911.5161  8.64120e-14  4.78074e-16      33148.6      183.394
       6917.2055  8.70530e-14  4.80085e-16      33377.6      184.073
       6922.8949  8.67281e-14  4.79096e-16      33274.7      183.814
       6928.5844  8.68032e-14  4.78761e-16      33368.7      184.045
       6934.2738  8.51512e-14  4.73668e-16      32794.4      182.424
       6939.9632  8.53024e-14  4.73782e-16      32906.6      182.768
       6945.6526  8.54750e-14  4.74103e-16      33016.7      183.133
       6951.3420  8.71648e-14  4.78396e-16      33701.5      184.968
       6957.0315  8.87003e-14  4.82389e-16      34316.1      186.625
       6962.7209  8.92755e-14  4.83772e-16      34549.5      187.219
       6968.4103  8.88717e-14  4.82647e-16      34398.2      186.811
       6974.0997  8.74241e-14  4.78732e-16      33839.2      185.303
       6979.7891  8.75764e-14  4.79027e-16      33898.0      185.416
       6985.4786  9.15719e-14  4.89655e-16      35443.5      189.524
       6991.1680  9.35604e-14  4.94851e-16      36208.0      191.508
       6996.8574  9.55551e-14  5.00266e-16      36967.4      193.538
       7002.5468  9.63835e-14  5.02493e-16      37268.2      194.297
       7008.2362  9.69418e-14  5.04084e-16      37462.3      194.799
       7013.9257  9.70690e-14  5.04584e-16      37487.3      194.867
       7019.6151  9.61923e-14  5.02458e-16      37123.8      193.915
       7025.3045  9.53948e-14  5.00536e-16      36789.2      193.032
       7030.9939  9.48283e-14  4.99275e-16      36534.6      192.356
       7036.6833  9.54387e-14  5.01273e-16      36724.1      192.886
       7042.3728  9.62680e-14  5.03734e-16      36990.6      193.558
       7048.0622  9.70260e-14  5.06122e-16      37225.7      194.182
       7053.7516  9.59216e-14  5.03765e-16      36740.9      192.957
       7059.4410  9.55359e-14  5.03090e-16      36528.2      192.357
       7065.1304  9.68073e-14  5.06704e-16      36952.6      193.415
       7070.8199  1.00272e-13  5.16025e-16      38222.6      196.702
       7076.5093  1.05353e-13  5.29089e-16      40115.7      201.463
       7082.1987  1.07559e-13  5.34842e-16      40916.6      203.459
       7087.8881  1.10036e-13  5.41206e-16      41816.0      205.669
       7093.5775  1.13167e-13  5.49095e-16      42950.7      208.401
       7099.2670  1.16592e-13  5.57585e-16      44175.9      211.264
       7104.9564  1.19524e-13  5.65154e-16      45192.2      213.685
       7110.6458  1.22256e-13  5.72222e-16      46108.4      215.812
       7116.3352  1.24112e-13  5.77373e-16      46674.5      217.131
       7122.0246  1.24792e-13  5.79891e-16      46776.1      217.361
       7127.7141  1.24896e-13  5.81076e-16      46656.6      217.069
       7133.4035  1.23038e-13  5.77839e-16      45805.5      215.123
       7139.0929  1.19871e-13  5.71560e-16      44463.1      212.006
       7144.7823  1.19159e-13  5.70964e-16      44033.0      210.989
       7150.4717  1.19085e-13  5.71782e-16      43846.3      210.526
       7156.1612  1.16946e-13  5.67732e-16      42903.1      208.280
       7161.8506  1.13243e-13  5.59842e-16      41389.4      204.617
       7167.5400  1.07819e-13  5.47320e-16      39264.5      199.318
       7173.2294  1.03758e-13  5.38025e-16      37654.6      195.253
       7178.9188  1.05216e-13  5.42533e-16      38058.0      196.241
       7184.6083  1.12762e-13  5.62260e-16      40648.1      202.681
       7190.2977  1.26008e-13  5.95203e-16      45250.1      213.740
       7195.9871  1.40315e-13  6.29096e-16      50183.2      224.995
       7201.6765  1.56509e-13  6.65441e-16      55748.5      237.029
       7207.3659  1.73838e-13  7.02502e-16      61681.6      249.264
       7213.0554  1.89592e-13  7.34879e-16      67025.1      259.796
       7218.7448  2.01629e-13  7.59093e-16      71030.5      267.415
       7224.4342  2.09553e-13  7.75116e-16      73576.9      272.154
       7230.1236  2.17327e-13  7.90481e-16      76092.0      276.769
       7235.8130  2.22941e-13  8.01837e-16      77881.9      280.113
       7241.5025  2.22736e-13  8.02481e-16      77680.9      279.872
       7247.1919  2.18247e-13  7.94873e-16      75993.5      276.774
       7252.8813  2.12297e-13  7.84430e-16      73802.5      272.698
       7258.5707  2.08608e-13  7.77999e-16      72420.5      270.091
       7264.2601  2.07848e-13  7.77094e-16      72062.8      269.425
       7269.9495  2.07942e-13  7.78013e-16      72007.4      269.415
       7275.6390  2.08046e-13  7.78894e-16      71965.3      269.427
       7281.3284  2.09783e-13  7.82416e-16      72503.0      270.410
       7287.0178  2.13695e-13  7.89712e-16      73786.1      272.677
       7292.7072  2.16925e-13  7.95928e-16      74810.9      274.492
       7298.3966  2.17540e-13  7.97562e-16      74916.1      274.663
       7304.0861  2.15051e-13  7.93503e-16      73959.0      272.897
       7309.7755  2.09907e-13  7.84537e-16      72110.1      269.515
       7315.4649  2.04097e-13  7.74231e-16      70055.8      265.753
       7321.1543  1.98654e-13  7.64129e-16      68135.7      262.086
       7326.8437  1.90374e-13  7.48311e-16      65247.3      256.470
       7332.5332  1.81426e-13  7.30950e-16      62141.5      250.363
       7338.2226  1.73231e-13  7.14633e-16      59308.1      244.664
       7343.9120  1.65219e-13  6.98106e-16      56540.0      238.901
       7349.6014  1.55241e-13  6.76912e-16      53086.5      231.478
       7355.2908  1.42997e-13  6.50100e-16      48856.9      222.116
       7360.9803  1.29420e-13  6.19199e-16      44177.6      211.364
       7366.6697  1.18300e-13  5.92885e-16      40337.2      202.158
       7372.3591  1.10823e-13  5.74442e-16      37731.3      195.577
       7378.0485  1.05339e-13  5.60409e-16      35796.2      190.437
       7383.7379  1.01134e-13  5.49704e-16      34298.1      186.424
       7389.4274  1.00793e-13  5.49415e-16      34114.4      185.955
       7395.1168  1.01997e-13  5.53264e-16      34456.1      186.900
       7400.8062  1.01371e-13  5.52176e-16      34176.7      186.162
       7406.4956  1.01723e-13  5.53559e-16      34222.5      186.232
       7412.1850  1.06009e-13  5.65215e-16      35592.9      189.773
       7417.8745  1.14154e-13  5.86889e-16      38252.4      196.663
       7423.5639  1.22407e-13  6.08222e-16      40933.3      203.391
       7429.2533  1.29320e-13  6.25817e-16      43148.1      208.805
       7434.9427  1.34736e-13  6.39544e-16      44839.2      212.836
       7440.6321  1.41404e-13  6.55868e-16      46927.1      217.660
       7446.3216  1.50378e-13  6.77227e-16      49756.1      224.076
       7452.0110  1.57905e-13  6.94897e-16      52080.4      229.192
       7457.7004  1.63187e-13  7.07413e-16      53646.5      232.556
       7463.3898  1.65995e-13  7.14732e-16      54393.8      234.206
       7469.0792  1.65104e-13  7.14045e-16      53931.1      233.242
       7474.7687  1.62220e-13  7.09000e-16      52820.3      230.857
       7480.4581  1.56607e-13  6.97811e-16      50827.0      226.475
       7486.1475  1.49437e-13  6.82864e-16      48344.2      220.912
       7491.8369  1.44977e-13  6.73601e-16      46757.5      217.248
       7497.5263  1.42671e-13  6.69142e-16      45879.4      215.180
       7503.2158  1.41674e-13  6.67880e-16      45423.0      214.134
       7508.9052  1.41420e-13  6.68363e-16      45197.7      213.608
       7514.5946  1.40636e-13  6.67809e-16      44791.7      212.692
       7520.2840  1.38342e-13  6.64039e-16      43883.8      210.641
       7525.9734  1.35002e-13  6.57859e-16      42601.7      207.597
       7531.6629  1.30585e-13  6.49509e-16      40892.9      203.396
       7537.3523  1.24306e-13  6.36546e-16      38580.6      197.564
       7543.0417  1.17706e-13  6.22134e-16      36219.4      191.437
       7548.7311  1.14120e-13  6.15157e-16      34827.1      187.733
       7554.4205  1.12858e-13  6.14239e-16      34165.9      185.951
       7560.1100  1.11424e-13  6.12786e-16      33466.1      184.049
       7565.7994  1.09922e-13  6.11324e-16      32759.0      182.187
       7571.4888  1.09083e-13  6.11467e-16      32261.9      180.844
       7577.1782  1.06789e-13  6.07215e-16      31348.9      178.253
       7582.8676  1.03543e-13  6.00200e-16      30177.7      174.928
       7588.5571  9.65800e-14  5.81451e-16      27952.5      168.286
       7594.2465  7.89849e-14  5.26520e-16      22704.1      151.347
       7599.9359  5.54435e-14  4.42024e-16      15829.4      126.200
       7605.6253  4.14316e-14  3.85969e-16      11750.7      109.468
       7611.3147  4.58651e-14  4.06489e-16      12925.2      114.553
       7617.0042  6.05181e-14  4.68174e-16      16950.5      131.131
       7622.6936  6.67234e-14  4.93778e-16      18577.5      137.480
       7628.3830  6.27995e-14  4.80495e-16      17383.2      133.003
       7634.0724  6.23178e-14  4.79792e-16      17154.2      132.072
       7639.7618  6.72672e-14  4.99380e-16      18427.6      136.804
       7645.4512  7.54502e-14  5.29476e-16      20603.4      144.585
       7651.1407  8.47525e-14  5.60959e-16      23143.5      153.182
       7656.8301  9.24139e-14  5.85082e-16      25280.6      160.054
       7662.5195  9.72141e-14  5.99581e-16      26640.5      164.308
       7668.2089  1.00383e-13  6.08643e-16      27557.1      167.085
       7673.8983  1.02651e-13  6.14825e-16      28229.6      169.080
       7679.5878  1.04589e-13  6.20120e-16      28809.6      170.815
       7685.2772  1.08773e-13  6.31849e-16      30010.7      174.328
       7690.9666  1.15924e-13  6.51687e-16      32022.5      180.020
       7696.6560  1.21319e-13  6.66233e-16      33545.6      184.218
       7702.3454  1.23089e-13  6.70814e-16      34068.0      185.664
       7708.0349  1.29664e-13  6.88374e-16      35921.2      190.702
       7713.7243  1.47541e-13  7.33671e-16      40906.2      203.412
       7719.4137  1.75497e-13  7.99011e-16      48678.3      221.625
       7725.1031  2.03623e-13  8.60114e-16      56478.8      238.569
       7730.7925  2.17774e-13  8.89518e-16      60380.4      246.629
       7736.4820  2.14386e-13  8.82825e-16      59404.3      244.622
       7742.1714  2.08380e-13  8.71110e-16      57690.8      241.170
       7747.8608  2.33302e-13  9.20976e-16      64513.1      254.671
       7753.5502  3.08075e-13  1.05623e-15      85085.3      291.713
       7759.2396  3.98428e-13  1.20318e-15      109890.      331.848
       7764.9291  4.64062e-13  1.30018e-15      127795.      358.050
       7770.6185  5.07246e-13  1.36039e-15      139466.      374.033
       7776.3079  5.39556e-13  1.40423e-15      148109.      385.463
       7781.9973  5.64802e-13  1.43834e-15      154685.      393.924
       7787.6867  5.74309e-13  1.45274e-15      156822.      396.688
       7793.3762  5.32798e-13  1.40078e-15      145048.      381.343
       7799.0656  4.49662e-13  1.28827e-15      122053.      349.680
       7804.7550  3.71688e-13  1.17361e-15      100578.      317.575
       7810.4444  3.20872e-13  1.09299e-15      86592.1      294.960
       7816.1338  2.92350e-13  1.04550e-15      78664.1      281.318
       7821.8233  2.70612e-13  1.00807e-15      72564.4      270.314
       7827.5127  2.45889e-13  9.62583e-16      65681.5      257.124
       7833.2021  2.18466e-13  9.09135e-16      58123.3      241.877
       7838.8915  1.95685e-13  8.62635e-16      51861.4      228.620
       7844.5809  1.80193e-13  8.29983e-16      47577.7      219.147
       7850.2704  1.73871e-13  8.17414e-16      45744.2      215.056
       7855.9598  1.74882e-13  8.21322e-16      45852.1      215.342
       7861.6492  1.76638e-13  8.26506e-16      46159.0      215.982
       7867.3386  1.77919e-13  8.30647e-16      46348.8      216.388
       7873.0280  1.80951e-13  8.38881e-16      46991.9      217.852
       7878.7175  1.82845e-13  8.44415e-16      47336.4      218.609
       7884.4069  1.83683e-13  8.47804e-16      47386.1      218.714
       7890.0963  1.87412e-13  8.58132e-16      48143.2      220.440
       7895.7857  1.92108e-13  8.70552e-16      49114.9      222.568
       7901.4751  1.92954e-13  8.74265e-16      49123.2      222.575
       7907.1646  1.89911e-13  8.69391e-16      48169.8      220.516
       7912.8540  1.86415e-13  8.63567e-16      47107.8      218.226
       7918.5434  1.81251e-13  8.53164e-16      45632.1      214.794
       7924.2328  1.76123e-13  8.42221e-16      44172.8      211.234
       7929.9222  1.74258e-13  8.39211e-16      43536.4      209.667
       7935.6117  1.71983e-13  8.34977e-16      42820.5      207.894
       7941.3011  1.69636e-13  8.30503e-16      42107.1      206.148
       7946.9905  1.68461e-13  8.28897e-16      41702.5      205.194
       7952.6799  1.66518e-13  8.25315e-16      41105.8      203.733
       7958.3693  1.63730e-13  8.20089e-16      40285.1      201.779
       7964.0588  1.57613e-13  8.06433e-16      38649.2      197.750
       7969.7482  1.49401e-13  7.86422e-16      36515.3      192.211
       7975.4376  1.43271e-13  7.71337e-16      34903.9      187.914
       7981.1270  1.39719e-13  7.63166e-16      33930.8      185.335
       7986.8164  1.38934e-13  7.62491e-16      33634.4      184.591
       7992.5059  1.39792e-13  7.66176e-16      33732.1      184.879
       7998.1953  1.38513e-13  7.63671e-16      33313.2      183.667
       8003.8847  1.33390e-13  7.50192e-16      31991.8      179.923
       8009.5741  1.28859e-13  7.38331e-16      30831.5      176.657
       8015.2635  1.25281e-13  7.29037e-16      29920.0      174.111
       8020.9529  1.21946e-13  7.20239e-16      29070.4      171.696
       8026.6424  1.19720e-13  7.14372e-16      28486.2      169.978
       8032.3318  1.18625e-13  7.11841e-16      28152.9      168.940
       8038.0212  1.18674e-13  7.12796e-16      28077.0      168.639
       8043.7106  1.18497e-13  7.13327e-16      27947.9      168.241
       8049.4000  1.18451e-13  7.14357e-16      27850.7      167.963
       8055.0895  1.20425e-13  7.21475e-16      28222.4      169.083
       8060.7789  1.22468e-13  7.28956e-16      28595.9      170.210
       8066.4683  1.23232e-13  7.32747e-16      28650.5      170.358
       8072.1577  1.23687e-13  7.35635e-16      28625.3      170.251
       8077.8471  1.25302e-13  7.41799e-16      28874.4      170.939
       8083.5366  1.27627e-13  7.50155e-16      29287.1      172.142
       8089.2260  1.30691e-13  7.60701e-16      29859.8      173.802
       8094.9154  1.34571e-13  7.73667e-16      30600.9      175.929
       8100.6048  1.36460e-13  7.81246e-16      30862.1      176.689
       8106.2942  1.37051e-13  7.85182e-16      30811.7      176.524
       8111.9837  1.32889e-13  7.75410e-16      29699.6      173.297
       8117.6731  1.24480e-13  7.52925e-16      27657.6      167.289
       8123.3625  1.21156e-13  7.45177e-16      26763.2      164.609
       8129.0519  1.23695e-13  7.55006e-16      27176.1      165.877
       8134.7413  1.26983e-13  7.67157e-16      27741.7      167.600
       8140.4308  1.26699e-13  7.68595e-16      27521.2      166.953
       8146.1202  1.23280e-13  7.60515e-16      26619.8      164.217
       8151.8096  1.21947e-13  7.58466e-16      26187.2      162.874
       8157.4990  1.30986e-13  7.87249e-16      27989.1      168.219
       8163.1884  1.53128e-13  8.52321e-16      32552.9      181.192
       8168.8779  1.80337e-13  9.27127e-16      38135.6      196.059
       8174.5673  2.04208e-13  9.89103e-16      42964.5      208.103
       8180.2567  2.23073e-13  1.03594e-15      46720.7      216.968
       8185.9461  2.40855e-13  1.07839e-15      50231.5      224.903
       8191.6355  2.59316e-13  1.12077e-15      53879.7      232.869
       8197.3250  2.81737e-13  1.16979e-15      58347.2      242.261
       8203.0144  3.08890e-13  1.22669e-15      63751.6      253.177
       8208.7038  3.33040e-13  1.27579e-15      68508.3      262.438
       8214.3932  3.47152e-13  1.30452e-15      71210.3      267.592
       8220.0826  3.49802e-13  1.31067e-15      71607.8      268.307
       8225.7721  3.42933e-13  1.29850e-15      70105.1      265.450
       8231.4615  3.34198e-13  1.28315e-15      68204.0      261.869
       8237.1509  3.27352e-13  1.27119e-15      66693.5      258.988
       8242.8403  3.16601e-13  1.25131e-15      64388.3      254.482
       8248.5297  3.01219e-13  1.22182e-15      61148.8      248.034
       8254.2192  2.79591e-13  1.17820e-15      56661.5      238.772
       8259.9086  2.52690e-13  1.12136e-15      51126.5      226.885
       8265.5980  2.29851e-13  1.07112e-15      46419.5      216.318
       8271.2874  2.12891e-13  1.03221e-15      42920.7      208.103
       8276.9768  2.00081e-13  1.00227e-15      40271.1      201.730
       8282.6663  1.92406e-13  9.84232e-16      38674.5      197.836
       8288.3557  1.86123e-13  9.68959e-16      37366.0      194.528
       8294.0451  1.76615e-13  9.44751e-16      35410.3      189.418
       8299.7345  1.67398e-13  9.20500e-16      33519.8      184.322
       8305.4239  1.60304e-13  9.00855e-16      32074.7      180.249
       8311.1134  1.56216e-13  8.89394e-16      31239.6      177.859
       8316.8028  1.57575e-13  8.93284e-16      31485.2      178.488
       8322.4922  1.59460e-13  8.98580e-16      31851.2      179.487
       8328.1816  1.60981e-13  9.03008e-16      32146.9      180.325
       8333.8710  1.60811e-13  9.03032e-16      32101.6      180.267
       8339.5605  1.56382e-13  8.91991e-16      31205.3      177.993
       8345.2499  1.52392e-13  8.81771e-16      30393.2      175.861
       8350.9393  1.50449e-13  8.75847e-16      29992.9      174.605
       8356.6287  1.46550e-13  8.63819e-16      29199.4      172.111
       8362.3181  1.39817e-13  8.43836e-16      27843.4      168.042
       8368.0076  1.34406e-13  8.27757e-16      26746.2      164.720
       8373.6970  1.30634e-13  8.16629e-16      25969.2      162.340
       8379.3864  1.39901e-13  8.44665e-16      27780.0      167.724
       8385.0758  1.76096e-13  9.44992e-16      34947.9      187.542
       8390.7652  2.31413e-13  1.08277e-15      45909.6      214.809
       8396.4546  2.86710e-13  1.20649e-15      56853.8      239.244
       8402.1441  3.35226e-13  1.30487e-15      66428.8      258.574
       8407.8335  3.92654e-13  1.41121e-15      77731.8      279.370
       8413.5229  4.95061e-13  1.58182e-15      97921.8      312.880
       8419.2123  7.04974e-13  1.88214e-15      139323.      371.965
       8424.9017  1.02066e-12  2.26878e-15      201538.      447.990
       8430.5912  1.28432e-12  2.55345e-15      253329.      503.661
       8436.2806  1.41560e-12  2.68233e-15      278996.      528.652
       8441.9700  1.48382e-12  2.74849e-15      291940.      540.762
       8447.6594  1.51269e-12  2.77730e-15      297143.      545.557
       8453.3488  1.52248e-12  2.78877e-15      298563.      546.887
       8459.0383  1.51351e-12  2.78344e-15      296217.      544.761
       8464.7277  1.43590e-12  2.71327e-15      280439.      529.914
       8470.4171  1.21641e-12  2.49570e-15      237107.      486.470
       8476.1065  9.56065e-13  2.21666e-15      185990.      431.222
       8481.7959  8.04150e-13  2.03722e-15      156129.      395.534
       8487.4854  7.23815e-13  1.93520e-15      140283.      375.062
       8493.1748  6.65186e-13  1.85704e-15      128718.      359.352
       8498.8642  6.02645e-13  1.76888e-15      116440.      341.774
       8504.5536  5.31279e-13  1.66244e-15      102488.      320.698
       8510.2430  4.79188e-13  1.58093e-15      92283.4      304.459
       8515.9325  4.73399e-13  1.57276e-15      90995.5      302.313
       8521.6219  5.10294e-13  1.63366e-15      97926.5      313.502
       8527.3113  5.52207e-13  1.70061e-15      105827.      325.912
       8533.0007  5.83712e-13  1.74972e-15      111693.      334.807
       8538.6901  6.07994e-13  1.78741e-15      116106.      341.334
       8544.3796  6.19949e-13  1.80702e-15      118107.      344.257
       8550.0690  6.15108e-13  1.80199e-15      116930.      342.551
       8555.7584  5.91023e-13  1.76808e-15      112116.      335.404
       8561.4478  5.29066e-13  1.67251e-15      100261.      316.950
       8567.1372  4.31213e-13  1.51041e-15      81634.3      285.940
       8572.8267  3.49682e-13  1.36252e-15      66145.3      257.732
       8578.5161  3.05217e-13  1.27459e-15      57671.1      240.835
       8584.2055  2.83184e-13  1.22883e-15      53463.9      231.998
       8589.8949  2.76052e-13  1.21403e-15      52075.6      229.019
       8595.5843  2.76653e-13  1.21581e-15      52141.7      229.148
       8601.2738  2.83430e-13  1.23110e-15      53370.9      231.820
       8606.9632  2.88664e-13  1.24309e-15      54312.1      233.888
       8612.6526  2.82008e-13  1.22901e-15      53037.1      231.139
       8618.3420  2.68211e-13  1.19921e-15      50433.5      225.496
       8624.0314  2.69911e-13  1.20337e-15      50741.2      226.225
       8629.7209  2.93461e-13  1.25420e-15      55155.2      235.723
       8635.4103  3.42305e-13  1.35312e-15      64297.0      254.165
       8641.0997  4.18374e-13  1.49567e-15      78506.5      280.656
       8646.7891  4.92371e-13  1.62407e-15      92297.1      304.439
       8652.4785  5.40756e-13  1.70295e-15      101269.      318.917
       8658.1680  5.75293e-13  1.75749e-15      107591.      328.686
       8663.8574  6.00754e-13  1.79674e-15      112248.      335.711
       8669.5468  6.22201e-13  1.82920e-15      116145.      341.455
       8675.2362  6.41905e-13  1.85902e-15      119668.      346.572
       8680.9256  6.27786e-13  1.83935e-15      116877.      342.439
       8686.6151  5.66731e-13  1.74830e-15      105369.      325.051
       8692.3045  4.93488e-13  1.63311e-15      91627.0      303.223
       8697.9939  4.43333e-13  1.54899e-15      82260.6      287.417
       8703.6833  4.11308e-13  1.49280e-15      76249.9      276.741
       8709.3727  3.80819e-13  1.43726e-15      70539.0      266.223
       8715.0622  3.56710e-13  1.39209e-15      66007.2      257.598
       8720.7516  3.43222e-13  1.36630e-15      63449.9      252.581
       8726.4410  3.30657e-13  1.34240e-15      61024.7      247.749
       8732.1304  3.11993e-13  1.30504e-15      57479.6      240.432
       8737.8198  2.86223e-13  1.25160e-15      52613.2      230.068
       8743.5093  2.63625e-13  1.20284e-15      48352.5      220.617
       8749.1987  2.46680e-13  1.16528e-15      45151.0      213.287
       8754.8881  2.34729e-13  1.13847e-15      42905.7      208.099
       8760.5775  2.24578e-13  1.11504e-15      41016.2      203.647
       8766.2669  2.09394e-13  1.07800e-15      38209.7      196.712
       8771.9563  1.90601e-13  1.02883e-15      34754.8      187.601
       8777.6458  1.66586e-13  9.62273e-16      30383.4      175.508
       8783.3352  1.50589e-13  9.15401e-16      27453.1      166.882
       8789.0246  1.46855e-13  9.03852e-16      26751.4      164.648
       8794.7140  1.47377e-13  9.05494e-16      26830.8      164.850
       8800.4034  1.49889e-13  9.13103e-16      27270.9      166.130
       8806.0929  1.50838e-13  9.16405e-16      27425.4      166.621
       8811.7823  1.48155e-13  9.08961e-16      26914.5      165.126
       8817.4717  1.45805e-13  9.02661e-16      26464.7      163.840
       8823.1611  1.48538e-13  9.12979e-16      26930.9      165.529
       8828.8505  1.52738e-13  9.27065e-16      27650.4      167.828
       8834.5400  1.63681e-13  9.58748e-16      29589.5      173.318
       8840.2294  1.80523e-13  1.00604e-15      32579.3      181.561
       8845.9188  1.94170e-13  1.04308e-15      34995.6      187.996
       8851.6082  1.94797e-13  1.04562e-15      35050.7      188.142
       8857.2976  1.91489e-13  1.03748e-15      34416.1      186.466
       8862.9871  1.86279e-13  1.02408e-15      33431.8      183.794
       8868.6765  1.89312e-13  1.03334e-15      33916.0      185.127
       8874.3659  1.88602e-13  1.03243e-15      33717.5      184.574
       8880.0553  1.84483e-13  1.02299e-15      32901.3      182.444
       8885.7447  1.78905e-13  1.00964e-15      31830.7      179.635
       8891.4342  1.66452e-13  9.75302e-16      29520.7      172.973
       8897.1236  1.58167e-13  9.51945e-16      27956.5      168.259
       8902.8130  1.56161e-13  9.47433e-16      27527.6      167.011
       8908.5024  1.59775e-13  9.59664e-16      28092.0      168.730
       8914.1918  1.62046e-13  9.67718e-16      28421.9      169.732
       8919.8813  1.65728e-13  9.80944e-16      28983.8      171.556
       8925.5707  1.68040e-13  9.88559e-16      29291.7      172.319
       8931.2601  1.61909e-13  9.71020e-16      28129.2      168.700
       8936.9495  1.49989e-13  9.36670e-16      25959.1      162.112
       8942.6389  1.37087e-13  8.97780e-16      23638.5      154.808
       8948.3284  1.26356e-13  8.63774e-16      21716.5      148.454
       8954.0178  1.18190e-13  8.37759e-16      20247.1      143.517
       8959.7072  1.15167e-13  8.28966e-16      19672.9      141.605
       8965.3966  1.16719e-13  8.34600e-16      19890.3      142.226
       8971.0860  1.21601e-13  8.52007e-16      20675.2      144.862
       8976.7755  1.27590e-13  8.73099e-16      21645.3      148.119
       8982.4649  1.38321e-13  9.09564e-16      23425.0      154.037
       8988.1543  1.58780e-13  9.74210e-16      26852.7      164.758
       8993.8437  1.88129e-13  1.06012e-15      31782.7      179.098
       8999.5331  2.18441e-13  1.14320e-15      36840.7      192.803
       9005.2226  2.41132e-13  1.20182e-15      40597.9      202.343
       9010.9120  2.56257e-13  1.23893e-15      43095.4      208.354
       9016.6014  2.62956e-13  1.25549e-15      44176.6      210.923
       9022.2908  2.63480e-13  1.25726e-15      44219.6      211.005
       9027.9802  2.71056e-13  1.27601e-15      45420.6      213.819
       9033.6697  2.89140e-13  1.31886e-15      48373.8      220.647
       9039.3591  3.03682e-13  1.35248e-15      50733.1      225.945
       9045.0485  3.14612e-13  1.37744e-15      52495.7      229.838
       9050.7379  3.30040e-13  1.41150e-15      55023.0      235.320
       9056.4273  3.37888e-13  1.42811e-15      56302.5      237.968
       9062.1168  3.38052e-13  1.42837e-15      56323.9      237.985
       9067.8062  3.42511e-13  1.43814e-15      57037.3      239.489
       9073.4956  3.54528e-13  1.46325e-15      59000.1      243.512
       9079.1850  3.71189e-13  1.49783e-15      61710.8      249.016
       9084.8744  3.70859e-13  1.49823e-15      61580.4      248.779
       9090.5639  3.68426e-13  1.49450e-15      61087.8      247.799
       9096.2533  3.59835e-13  1.47825e-15      59574.5      244.739
       9101.9427  3.43639e-13  1.44544e-15      56807.6      238.949
       9107.6321  3.15253e-13  1.38631e-15      52026.2      228.783
       9113.3215  2.96991e-13  1.34675e-15      48933.2      221.895
       9119.0109  2.82875e-13  1.31481e-15      46577.0      216.490
       9124.7004  2.67601e-13  1.27974e-15      44005.9      210.448
       9130.3898  2.53699e-13  1.24688e-15      41677.6      204.837
       9136.0792  2.39095e-13  1.21142e-15      39241.2      198.824
       9141.7686  2.15752e-13  1.15080e-15      35345.3      188.529
       9147.4580  1.57103e-13  9.86811e-16      25712.7      161.510
       9153.1475  1.57698e-13  9.89036e-16      25785.6      161.720
       9158.8369  1.58348e-13  9.91596e-16      25857.9      161.925
       9164.5263  1.67248e-13  1.01705e-15      27282.1      165.904
       9170.2157  2.27013e-13  1.18493e-15      36972.9      192.985
       9175.9051  2.27857e-13  1.18840e-15      37057.3      193.274
       9181.5946  2.34485e-13  1.20636e-15      38069.4      195.857
       9187.2840  2.45810e-13  1.23580e-15      39845.5      200.321
       9192.9734  2.70797e-13  1.29755e-15      43815.4      209.946
       9198.6628  3.12863e-13  1.39476e-15      50537.1      225.297
       9204.3522  3.62539e-13  1.50292e-15      58467.8      242.380
       9210.0417  4.06631e-13  1.59241e-15      65503.7      256.519
       9215.7311  4.33821e-13  1.64610e-15      69760.5      264.701
       9221.4205  4.39438e-13  1.65917e-15      70440.7      265.960
       9227.1099  4.35831e-13  1.65553e-15      69613.3      264.430
       9232.7993  4.33202e-13  1.65349e-15      68942.4      263.147
       9238.4888  4.26815e-13  1.64393e-15      67681.6      260.684
       9244.1782  4.26400e-13  1.64638e-15      67360.1      260.086
       9249.8676  4.17982e-13  1.63451e-15      65670.0      256.801
       9255.5570  4.00163e-13  1.60614e-15      62361.7      250.302
       9261.2464  3.76865e-13  1.56625e-15      58182.0      241.804
       9266.9359  3.47830e-13  1.51327e-15      53104.8      231.037
       9272.6253  3.25800e-13  1.47274e-15      49156.1      222.204
       9278.3147  3.03754e-13  1.43108e-15      45332.7      213.576
       9284.0041  2.89649e-13  1.40536e-15      42743.0      207.387
       9289.6935  2.72398e-13  1.37138e-15      39734.0      200.039
       9295.3830  2.50764e-13  1.32434e-15      36150.2      190.917
       9301.0724  2.27946e-13  1.27103e-15      32487.8      181.152
       9306.7618  2.06006e-13  1.21715e-15      29033.7      171.540
       9312.4512  1.83622e-13  1.15671e-15      25603.4      161.286
       9318.1406  1.74943e-13  1.13515e-15      24134.0      156.598
       9323.8301  1.73831e-13  1.13730e-15      23724.1      155.216
       9329.5195  1.77371e-13  1.15351e-15      23954.6      155.786
       9335.2089  1.79524e-13  1.16567e-15      24008.0      155.887
       9340.8983  1.68370e-13  1.13395e-15      22333.1      150.410
       9346.5877  1.64760e-13  1.12517e-15      21693.6      148.148
       9352.2772  1.76603e-13  1.16921e-15      23081.0      152.808
       9357.9666  1.83797e-13  1.19649e-15      23848.2      155.248
       9363.6560  2.22158e-13  1.31893e-15      28655.0      170.122
       9369.3454  2.47626e-13  1.39549e-15      31834.1      179.399
       9375.0348  2.73386e-13  1.46748e-15      35154.9      188.704
       9380.7243  2.96887e-13  1.52481e-15      38318.7      196.805
       9386.4137  3.17872e-13  1.57045e-15      41273.9      203.915
       9392.1031  3.42814e-13  1.62516e-15      44819.0      212.471
       9397.7925  3.49815e-13  1.63568e-15      46054.2      215.342
       9403.4819  3.43588e-13  1.61471e-15      45566.0      214.140
       9409.1714  3.40573e-13  1.60040e-15      45555.9      214.074
       9414.8608  3.12941e-13  1.52808e-15      42229.6      206.206
       9420.5502  2.79830e-13  1.43944e-15      38098.2      195.976
       9426.2396  2.34718e-13  1.31309e-15      32243.7      180.382
       9431.9290  1.87462e-13  1.16600e-15      26139.1      162.583
       9437.6185  1.65870e-13  1.07311e-15      24237.8      156.808
       9443.3079  1.33183e-13  9.13549e-16      21573.1      147.977
       9448.9973  1.24873e-13  8.42458e-16      22244.1      150.070
       9454.6867  1.07546e-13  7.48231e-16      20927.4      145.599
       9460.3761  8.93257e-14  6.55042e-16      18880.1      138.451
       9466.0656  7.81301e-14  5.89523e-16      17849.3      134.680
       9471.7550  6.79439e-14  5.30244e-16      16706.3      130.378
       9477.4444  1.07765e-13  8.57747e-16      16109.7      128.224
       9483.1338  1.00136e-13  8.21698e-16      15117.7      124.053
       9488.8232  8.71709e-14  7.18980e-16      14936.9      123.198
       9494.5126  4.65074e-14  4.11820e-16      12981.2      114.948
       9500.2021  2.45805e-14  2.25867e-16      12075.8      110.963
       9505.8915  2.60167e-14  2.31201e-16      12913.4      114.757
       9511.5809  3.02772e-14  2.47719e-16      15184.9      124.239
       9517.2703  3.00014e-14  2.45671e-16      15205.4      124.511
       9522.9597  2.52884e-14  2.24693e-16      12953.4      115.094
       9528.6492  1.27696e-16  1.23471e-17      66.1143      6.39270
