# N Sco 2012
# 2012-06-23T 1:32:19.5
# 
#     Wavelength       Flux    Uncertainty       Counts  Uncertainty
# 
       5620.7156  1.23343e-13  1.69949e-15      5361.10      73.8685
       5621.8162  1.28382e-13  1.73070e-15      5582.30      75.2541
       5622.9168  1.27210e-13  1.72620e-15      5533.49      75.0876
       5624.0175  1.26479e-13  1.71768e-15      5503.85      74.7462
       5625.1181  1.23539e-13  1.69866e-15      5377.98      73.9472
       5626.2187  1.22627e-13  1.69074e-15      5340.37      73.6310
       5627.3193  1.36294e-13  1.88193e-15      5324.18      73.5156
       5628.4199  1.46399e-13  1.98220e-15      5526.15      74.8224
       5629.5206  1.41112e-13  1.95193e-15      5328.64      73.7085
       5630.6212  1.41305e-13  1.95140e-15      5338.03      73.7171
       5631.7218  1.35144e-13  1.86414e-15      5341.50      73.6792
       5632.8224  1.35061e-13  1.86980e-15      5302.71      73.4111
       5633.9231  1.37838e-13  1.89325e-15      5375.46      73.8337
       5635.0237  1.40356e-13  1.91709e-15      5436.70      74.2584
       5636.1243  1.37377e-13  1.90326e-15      5285.11      73.2215
       5637.2249  1.39384e-13  1.92390e-15      5325.57      73.5079
       5638.3256  1.39024e-13  1.93006e-15      5275.12      73.2340
       5639.4262  1.37711e-13  1.91952e-15      5218.58      72.7405
       5640.5268  1.36968e-13  1.91467e-15      5192.45      72.5850
       5641.6274  1.39443e-13  1.92983e-15      5288.35      73.1883
       5642.7281  1.46881e-13  1.98025e-15      5572.64      75.1301
       5643.8287  1.54959e-13  2.03424e-15      5881.41      77.2091
       5644.9293  1.61491e-13  2.07571e-15      6131.76      78.8141
       5646.0299  1.66724e-13  2.10672e-15      6332.94      80.0227
       5647.1306  1.68967e-13  2.12155e-15      6420.66      80.6180
       5648.2312  1.73825e-13  2.15101e-15      6607.89      81.7698
       5649.3318  1.77002e-13  2.17145e-15      6731.31      82.5792
       5650.4324  1.82972e-13  2.20561e-15      6961.10      83.9113
       5651.5331  1.85609e-13  2.21993e-15      7064.17      84.4893
       5652.6337  1.88430e-13  2.23668e-15      7174.45      85.1614
       5653.7343  1.96355e-13  2.28298e-15      7479.20      86.9595
       5654.8349  2.02151e-13  2.31751e-15      7703.10      88.3103
       5655.9356  2.05426e-13  2.33426e-15      7831.08      88.9845
       5657.0362  2.10028e-13  2.35835e-15      8009.75      89.9394
       5658.1368  2.11600e-13  2.36891e-15      8072.96      90.3788
       5659.2374  2.11222e-13  2.36577e-15      8061.81      90.2955
       5660.3381  2.14419e-13  2.38337e-15      8187.56      91.0087
       5661.4387  2.13690e-13  2.38300e-15      8165.33      91.0571
       5662.5393  2.15062e-13  2.38731e-15      8223.93      91.2902
       5663.6399  2.15104e-13  2.38273e-15      8232.62      91.1937
       5664.7406  2.18701e-13  2.40030e-15      8378.31      91.9541
       5665.8412  2.20603e-13  2.40881e-15      8459.82      92.3745
       5666.9418  2.17776e-13  2.39165e-15      8360.14      91.8121
       5668.0424  2.15905e-13  2.38277e-15      8296.94      91.5669
       5669.1431  2.16807e-13  2.38458e-15      8340.33      91.7321
       5670.2437  2.14200e-13  2.36687e-15      8249.43      91.1546
       5671.3443  2.09367e-13  2.34231e-15      8073.40      90.3220
       5672.4449  2.05395e-13  2.32140e-15      7931.08      89.6380
       5673.5456  2.05722e-13  2.32165e-15      7956.60      89.7930
       5674.6462  2.08424e-13  2.33144e-15      8077.76      90.3581
       5675.7468  2.11915e-13  2.34581e-15      8229.95      91.1019
       5676.8474  2.13637e-13  2.35564e-15      8313.85      91.6719
       5677.9481  2.17066e-13  2.37220e-15      8464.63      92.5054
       5679.0487  2.16023e-13  2.36441e-15      8441.24      92.3909
       5680.1493  2.15259e-13  2.35744e-15      8428.57      92.3067
       5681.2499  2.14458e-13  2.34816e-15      8414.76      92.1357
       5682.3506  2.11154e-13  2.33097e-15      8303.56      91.6646
       5683.4512  2.11161e-13  2.33075e-15      8322.26      91.8591
       5684.5518  2.06986e-13  2.30431e-15      8173.98      90.9986
       5685.6524  2.04462e-13  2.28679e-15      8089.88      90.4808
       5686.7531  2.05557e-13  2.28964e-15      8147.98      90.7581
       5687.8537  2.05529e-13  2.28647e-15      8160.90      90.7886
       5688.9543  2.04926e-13  2.28568e-15      8150.44      90.9077
       5690.0549  2.03650e-13  2.27701e-15      8112.95      90.7108
       5691.1556  2.02507e-13  2.26754e-15      8080.61      90.4812
       5692.2562  2.01019e-13  2.25533e-15      8034.37      90.1417
       5693.3568  1.99762e-13  2.24712e-15      7996.67      89.9545
       5694.4574  1.98017e-13  2.23510e-15      7938.45      89.6046
       5695.5581  1.95493e-13  2.21754e-15      7848.23      89.0250
       5696.6587  1.91998e-13  2.20109e-15      7718.61      88.4871
       5697.7593  1.89522e-13  2.18634e-15      7626.57      87.9807
       5698.8599  1.88713e-13  2.17810e-15      7601.93      87.7404
       5699.9606  1.87080e-13  2.16710e-15      7544.56      87.3949
       5701.0612  1.81045e-13  2.12658e-15      7310.17      85.8666
       5702.1618  1.80432e-13  2.12160e-15      7294.95      85.7773
       5703.2624  1.78663e-13  2.10963e-15      7232.95      85.4060
       5704.3631  1.77966e-13  2.10654e-15      7214.54      85.3970
       5705.4637  1.76558e-13  2.09917e-15      7166.52      85.2058
       5706.5643  1.78038e-13  2.10479e-15      7235.47      85.5387
       5707.6649  1.75679e-13  2.08972e-15      7148.34      85.0304
       5708.7656  1.78848e-13  2.10669e-15      7286.23      85.8260
       5709.8662  1.82389e-13  2.12783e-15      7439.59      86.7935
       5710.9668  1.82950e-13  2.12765e-15      7472.18      86.8987
       5712.0674  1.84971e-13  2.13830e-15      7564.50      87.4473
       5713.1681  1.83827e-13  2.13587e-15      7527.50      87.4611
       5714.2687  1.87410e-13  2.15088e-15      7684.16      88.1902
       5715.3693  1.86526e-13  2.14443e-15      7657.77      88.0390
       5716.4699  1.86539e-13  2.14319e-15      7668.00      88.0996
       5717.5706  1.88153e-13  2.15155e-15      7744.05      88.5541
       5718.6712  1.91147e-13  2.16753e-15      7876.82      89.3199
       5719.7718  1.91328e-13  2.16694e-15      7892.35      89.3874
       5720.8724  1.90563e-13  2.16117e-15      7868.56      89.2372
       5721.9731  1.88504e-13  2.14714e-15      7790.86      88.7411
       5723.0737  1.89522e-13  2.15086e-15      7839.67      88.9714
       5724.1743  1.85418e-13  2.12775e-15      7675.65      88.0811
       5725.2749  1.90474e-13  2.15712e-15      7890.29      89.3572
       5726.3756  1.91578e-13  2.16344e-15      7941.24      89.6784
       5727.4762  1.92250e-13  2.16275e-15      7974.64      89.7121
       5728.5768  1.91950e-13  2.16444e-15      7969.70      89.8671
       5729.6774  1.99157e-13  2.19890e-15      8277.47      91.3919
       5730.7781  1.96581e-13  2.18401e-15      8178.86      90.8668
       5731.8787  1.97414e-13  2.18775e-15      8222.34      91.1202
       5732.9793  2.00529e-13  2.20515e-15      8361.95      91.9535
       5734.0799  2.00584e-13  2.20209e-15      8373.71      91.9300
       5735.1806  2.07752e-13  2.23987e-15      8683.26      93.6185
       5736.2812  2.06878e-13  2.23499e-15      8657.57      93.5310
       5737.3818  2.05195e-13  2.22824e-15      8597.93      93.3661
       5738.4824  2.07381e-13  2.23735e-15      8701.78      93.8802
       5739.5830  2.06541e-13  2.23005e-15      8678.87      93.7069
       5740.6837  2.08107e-13  2.23451e-15      8757.59      94.0332
       5741.7843  2.08598e-13  2.23846e-15      8791.78      94.3444
       5742.8849  2.07282e-13  2.22503e-15      8749.37      93.9188
       5743.9855  2.04951e-13  2.21447e-15      8664.31      93.6171
       5745.0862  2.06323e-13  2.21922e-15      8738.01      93.9861
       5746.1868  2.05264e-13  2.21017e-15      8710.58      93.7907
       5747.2874  2.05706e-13  2.21231e-15      8747.02      94.0715
       5748.3880  2.07086e-13  2.21468e-15      8823.78      94.3655
       5749.4887  2.07137e-13  2.21184e-15      8845.82      94.4571
       5750.5893  2.07498e-13  2.21241e-15      8880.65      94.6884
       5751.6899  2.08070e-13  2.21294e-15      8921.98      94.8901
       5752.7905  2.07292e-13  2.20624e-15      8905.10      94.7781
       5753.8912  2.08953e-13  2.21426e-15      8993.77      95.3063
       5754.9918  2.08870e-13  2.21108e-15      9007.62      95.3539
       5756.0924  2.06339e-13  2.19488e-15      8914.92      94.8303
       5757.1930  2.08097e-13  2.20135e-15      9007.36      95.2842
       5758.2937  2.07097e-13  2.19653e-15      8980.04      95.2448
       5759.3943  2.03866e-13  2.17795e-15      8855.93      94.6099
       5760.4949  2.03816e-13  2.17787e-15      8869.67      94.7765
       5761.5955  2.01343e-13  2.16284e-15      8776.47      94.2770
       5762.6962  1.99352e-13  2.15139e-15      8703.97      93.9322
       5763.7968  1.99706e-13  2.14998e-15      8734.21      94.0299
       5764.8974  1.99473e-13  2.14585e-15      8740.20      94.0236
       5765.9980  1.97748e-13  2.13271e-15      8681.44      93.6292
       5767.0987  1.95670e-13  2.11847e-15      8607.12      93.1870
       5768.1993  1.97051e-13  2.12544e-15      8684.04      93.6682
       5769.2999  1.95473e-13  2.11559e-15      8628.81      93.3892
       5770.4005  1.94934e-13  2.11378e-15      8619.33      93.4644
       5771.5012  1.90907e-13  2.08693e-15      8455.77      92.4357
       5772.6018  1.90227e-13  2.08177e-15      8438.64      92.3495
       5773.7024  1.88623e-13  2.07335e-15      8380.87      92.1227
       5774.8030  1.84077e-13  2.04631e-15      8192.09      91.0685
       5775.9037  1.79750e-13  2.01717e-15      8012.40      89.9156
       5777.0043  1.76983e-13  2.00141e-15      7901.32      89.3519
       5778.1049  1.73338e-13  1.98000e-15      7750.82      88.5362
       5779.2055  1.64249e-13  1.92385e-15      7356.40      86.1654
       5780.3062  1.60785e-13  1.90278e-15      7213.30      85.3645
       5781.4068  1.65478e-13  1.92856e-15      7436.37      86.6666
       5782.5074  1.71765e-13  1.96401e-15      7731.53      88.4046
       5783.6080  1.78419e-13  2.00106e-15      8046.05      90.2406
       5784.7087  1.84269e-13  2.03098e-15      8326.02      91.7679
       5785.8093  1.84190e-13  2.02989e-15      8338.70      91.8977
       5786.9099  1.84272e-13  2.02864e-15      8358.48      92.0181
       5788.0105  1.85396e-13  2.03162e-15      8423.83      92.3106
       5789.1112  1.84535e-13  2.02403e-15      8398.29      92.1148
       5790.2118  1.84750e-13  2.02410e-15      8421.16      92.2610
       5791.3124  1.88538e-13  2.04253e-15      8605.87      93.2317
       5792.4130  1.88045e-13  2.03741e-15      8595.39      93.1287
       5793.5137  1.87162e-13  2.03380e-15      8566.79      93.0912
       5794.6143  1.84025e-13  2.01621e-15      8434.14      92.4059
       5795.7149  1.78758e-13  1.98774e-15      8203.24      91.2176
       5796.8155  1.78523e-13  1.98357e-15      8202.15      91.1346
       5797.9162  1.82488e-13  2.00338e-15      8394.52      92.1562
       5799.0168  1.89063e-13  2.03738e-15      8707.48      93.8334
       5800.1174  1.94237e-13  2.06182e-15      8956.44      95.0726
       5801.2180  1.94131e-13  2.06059e-15      8961.99      95.1265
       5802.3187  1.91976e-13  2.04759e-15      8874.81      94.6574
       5803.4193  1.92676e-13  2.05038e-15      8920.67      94.9302
       5804.5199  1.92165e-13  2.04669e-15      8911.60      94.9144
       5805.6205  1.90768e-13  2.03667e-15      8861.51      94.6069
       5806.7212  1.90736e-13  2.03597e-15      8872.81      94.7106
       5807.8218  1.90020e-13  2.03172e-15      8851.63      94.6428
       5808.9224  1.92323e-13  2.04034e-15      8972.11      95.1847
       5810.0230  1.92621e-13  2.04055e-15      8999.32      95.3350
       5811.1237  1.92278e-13  2.03746e-15      8996.78      95.3341
       5812.2243  1.94989e-13  2.05062e-15      9138.36      96.1044
       5813.3249  1.94425e-13  2.04718e-15      9126.79      96.0996
       5814.4255  1.95870e-13  2.05070e-15      9209.72      96.4232
       5815.5262  1.98839e-13  2.06342e-15      9365.95      97.1937
       5816.6268  1.96076e-13  2.04807e-15      9252.30      96.6432
       5817.7274  1.97227e-13  2.05180e-15      9323.75      96.9971
       5818.8280  1.98911e-13  2.06021e-15      9420.89      97.5762
       5819.9287  1.97409e-13  2.05000e-15      9367.21      97.2743
       5821.0293  1.97572e-13  2.04934e-15      9392.04      97.4200
       5822.1299  1.95595e-13  2.03907e-15      9315.81      97.1169
       5823.2305  1.93652e-13  2.02892e-15      9240.84      96.8178
       5824.3312  1.92732e-13  2.02044e-15      9215.19      96.6042
       5825.4318  1.88909e-13  1.99699e-15      9048.20      95.6502
       5826.5324  1.83886e-13  1.96852e-15      8821.92      94.4395
       5827.6330  1.80848e-13  1.94939e-15      8689.75      93.6685
       5828.7337  1.80287e-13  1.94554e-15      8675.84      93.6239
       5829.8343  1.76801e-13  1.92535e-15      8522.46      92.8089
       5830.9349  1.75692e-13  1.91723e-15      8484.39      92.5855
       5832.0355  1.73959e-13  1.90747e-15      8415.52      92.2767
       5833.1362  1.70279e-13  1.88714e-15      8251.82      91.4516
       5834.2368  1.67345e-13  1.86981e-15      8123.72      90.7693
       5835.3374  1.64916e-13  1.85480e-15      8019.23      90.1914
       5836.4380  1.60632e-13  1.82948e-15      7823.95      89.1089
       5837.5387  1.55740e-13  1.79911e-15      7598.25      87.7746
       5838.6393  1.50716e-13  1.76539e-15      7364.31      86.2609
       5839.7399  1.44478e-13  1.73059e-15      7070.63      84.6934
       5840.8405  1.38004e-13  1.69030e-15      6765.51      82.8651
       5841.9412  1.28485e-13  1.62961e-15      6309.90      80.0303
       5843.0418  1.22020e-13  1.58750e-15      6003.18      78.1027
       5844.1424  1.22313e-13  1.58711e-15      6028.35      78.2228
       5845.2430  1.26155e-13  1.60971e-15      6228.42      79.4733
       5846.3437  1.28615e-13  1.62663e-15      6360.73      80.4459
       5847.4443  1.27373e-13  1.61423e-15      6309.15      79.9569
       5848.5449  1.27943e-13  1.61830e-15      6346.93      80.2795
       5849.6455  1.34855e-13  1.65827e-15      6699.78      82.3854
       5850.7462  1.47680e-13  1.73382e-15      7347.38      86.2609
       5851.8468  1.63474e-13  1.82061e-15      8144.41      90.7044
       5852.9474  1.73475e-13  1.87534e-15      8653.11      93.5437
       5854.0480  1.81136e-13  1.91542e-15      9045.35      95.6497
       5855.1486  1.90414e-13  1.96099e-15      9519.07      98.0326
       5856.2493  1.93802e-13  1.97935e-15      9698.80      99.0564
       5857.3499  2.03401e-13  2.02363e-15      10190.9      101.389
       5858.4505  2.06515e-13  2.03653e-15      10358.8      102.152
       5859.5511  2.05425e-13  2.03342e-15      10316.1      102.115
       5860.6518  2.02710e-13  2.01652e-15      10192.1      101.390
       5861.7524  1.98149e-13  1.99410e-15      9975.37      100.388
       5862.8530  1.88670e-13  1.94585e-15      9509.51      98.0767
       5863.9536  1.78027e-13  1.89231e-15      8982.89      95.4824
       5865.0543  1.64314e-13  1.81793e-15      8301.08      91.8412
       5866.1549  1.54061e-13  1.75848e-15      7792.05      88.9398
       5867.2555  1.39983e-13  1.67940e-15      7088.84      85.0459
       5868.3561  1.28372e-13  1.61086e-15      6508.82      81.6757
       5869.4568  1.23540e-13  1.57767e-15      6271.75      80.0934
       5870.5574  1.18862e-13  1.54384e-15      6042.93      78.4887
       5871.6580  1.21102e-13  1.55761e-15      6165.68      79.3030
       5872.7586  1.29510e-13  1.60836e-15      6603.01      82.0015
       5873.8593  1.43273e-13  1.68872e-15      7315.86      86.2298
       5874.9599  1.61292e-13  1.78969e-15      8248.59      91.5261
       5876.0605  1.79535e-13  1.88722e-15      9195.70      96.6624
       5877.1611  1.95346e-13  1.96153e-15      10020.3      100.617
       5878.2618  2.19228e-13  2.07895e-15      11261.5      106.794
       5879.3624  2.46397e-13  2.19935e-15      12675.1      113.138
       5880.4630  2.80553e-13  2.34222e-15      14450.8      120.644
       5881.5636  3.15792e-13  2.48517e-15      16288.2      128.182
       5882.6643  3.46881e-13  2.59975e-15      17918.5      134.293
       5883.7649  3.49394e-13  2.60568e-15      18075.2      134.800
       5884.8655  3.45333e-13  2.59228e-15      17891.9      134.308
       5885.9661  3.23328e-13  2.50683e-15      16778.5      130.088
       5887.0668  2.79947e-13  2.33598e-15      14550.5      121.415
       5888.1674  2.32769e-13  2.13637e-15      12115.9      111.201
       5889.2680  2.11509e-13  2.04481e-15      11025.2      106.589
       5890.3686  2.55839e-13  2.24410e-15      13354.0      117.135
       5891.4693  3.26812e-13  2.52025e-15      17080.8      131.721
       5892.5699  3.35696e-13  2.54551e-15      17567.5      133.210
       5893.6705  3.00796e-13  2.41332e-15      15758.4      126.431
       5894.7711  2.68356e-13  2.28075e-15      14074.2      119.617
       5895.8718  2.79773e-13  2.33145e-15      14688.9      122.408
       5896.9724  3.54878e-13  2.61685e-15      18650.0      137.524
       5898.0730  4.20764e-13  2.84162e-15      22133.4      149.478
       5899.1736  4.39462e-13  2.89939e-15      23138.9      152.661
       5900.2743  4.54335e-13  2.94365e-15      23944.7      155.138
       5901.3749  4.66542e-13  2.98313e-15      24610.7      157.364
       5902.4755  4.62895e-13  2.96970e-15      24440.7      156.799
       5903.5761  4.61824e-13  2.96687e-15      24406.5      156.794
       5904.6768  4.54767e-13  2.94302e-15      24053.0      155.658
       5905.7774  4.47492e-13  2.91743e-15      23686.9      154.427
       5906.8780  4.41117e-13  2.89538e-15      23367.8      153.380
       5907.9786  4.23623e-13  2.83709e-15      22457.5      150.402
       5909.0793  4.07628e-13  2.78265e-15      21625.9      147.628
       5910.1799  3.96184e-13  2.74145e-15      21040.0      145.589
       5911.2805  3.82836e-13  2.69120e-15      20354.6      143.086
       5912.3811  3.60415e-13  2.61463e-15      19186.1      139.186
       5913.4818  3.52440e-13  2.58296e-15      18785.3      137.674
       5914.5824  3.37926e-13  2.52939e-15      18035.6      134.998
       5915.6830  3.31365e-13  2.50229e-15      17710.0      133.736
       5916.7836  3.18380e-13  2.45098e-15      17040.0      131.179
       5917.8843  3.08841e-13  2.41176e-15      16554.7      129.276
       5918.9849  3.03874e-13  2.38896e-15      16313.8      128.254
       5920.0855  2.91630e-13  2.33965e-15      15680.8      125.802
       5921.1861  2.91031e-13  2.33549e-15      15672.9      125.773
       5922.2868  2.83602e-13  2.30431e-15      15296.5      124.287
       5923.3874  2.73636e-13  2.26294e-15      14781.9      122.245
       5924.4880  2.69325e-13  2.24383e-15      14572.3      121.406
       5925.5886  2.67373e-13  2.23257e-15      14490.9      120.999
       5926.6893  2.63035e-13  2.21338e-15      14279.8      120.161
       5927.7899  2.62650e-13  2.21091e-15      14282.8      120.229
       5928.8905  2.57590e-13  2.18631e-15      14029.4      119.076
       5929.9911  2.52840e-13  2.16446e-15      13791.4      118.063
       5931.0918  2.50576e-13  2.15373e-15      13688.9      117.658
       5932.1924  2.45383e-13  2.13197e-15      13424.7      116.638
       5933.2930  2.46046e-13  2.13417e-15      13481.6      116.937
       5934.3936  2.40250e-13  2.10503e-15      13186.9      115.542
       5935.4943  2.39437e-13  2.09474e-15      13166.1      115.185
       5936.5949  2.37615e-13  2.08782e-15      13089.4      115.011
       5937.6955  2.38630e-13  2.09098e-15      13168.6      115.388
       5938.7961  2.38240e-13  2.08664e-15      13169.4      115.345
       5939.8968  2.34418e-13  2.06821e-15      12980.4      114.523
       5940.9974  2.33522e-13  2.06235e-15      12952.3      114.389
       5942.0980  2.31690e-13  2.05355e-15      12872.1      114.090
       5943.1986  2.29872e-13  2.04253e-15      12793.3      113.675
       5944.2993  2.29456e-13  2.04075e-15      12792.3      113.773
       5945.3999  2.29725e-13  2.03991e-15      12829.6      113.924
       5946.5005  2.31166e-13  2.04360e-15      12933.2      114.335
       5947.6011  2.30855e-13  2.03990e-15      12938.3      114.326
       5948.7018  2.33137e-13  2.04826e-15      13087.9      114.986
       5949.8024  2.30358e-13  2.03677e-15      12953.3      114.530
       5950.9030  2.30365e-13  2.03448e-15      12976.4      114.602
       5952.0036  2.32582e-13  2.04264e-15      13125.7      115.276
       5953.1043  2.29399e-13  2.02804e-15      12970.3      114.666
       5954.2049  2.30777e-13  2.03319e-15      13072.7      115.173
       5955.3055  2.30883e-13  2.02915e-15      13102.8      115.156
       5956.4061  2.30692e-13  2.02436e-15      13111.8      115.059
       5957.5068  2.25878e-13  2.00395e-15      12853.2      114.032
       5958.6074  2.26832e-13  2.00658e-15      12920.9      114.300
       5959.7080  2.26258e-13  2.00263e-15      12901.2      114.189
       5960.8086  2.26845e-13  2.00330e-15      12947.4      114.340
       5961.9093  2.27185e-13  2.00486e-15      12979.5      114.541
       5963.0099  2.29114e-13  2.01179e-15      13102.0      115.045
       5964.1105  2.28006e-13  2.00621e-15      13050.1      114.827
       5965.2111  2.23762e-13  1.98764e-15      12818.1      113.861
       5966.3117  2.24058e-13  1.98745e-15      12846.7      113.953
       5967.4124  2.26516e-13  1.99732e-15      12999.3      114.622
       5968.5130  2.25291e-13  1.99144e-15      12940.5      114.387
       5969.6136  2.25747e-13  1.99384e-15      12977.8      114.622
       5970.7142  2.26688e-13  1.99708e-15      13046.9      114.941
       5971.8149  2.27199e-13  1.99768e-15      13094.3      115.134
       5972.9155  2.31267e-13  2.01288e-15      13348.2      116.179
       5974.0161  2.37636e-13  2.03960e-15      13735.6      117.891
       5975.1167  2.48034e-13  2.08038e-15      14356.9      120.418
       5976.2174  2.62163e-13  2.13663e-15      15195.9      123.847
       5977.3180  2.70938e-13  2.17162e-15      15727.4      126.058
       5978.4186  2.77783e-13  2.19732e-15      16148.2      127.736
       5979.5192  2.80693e-13  2.20739e-15      16341.1      128.508
       5980.6199  2.82922e-13  2.21395e-15      16496.1      129.087
       5981.7205  2.81289e-13  2.20578e-15      16425.9      128.807
       5982.8211  2.77258e-13  2.18737e-15      16215.2      127.927
       5983.9217  2.78734e-13  2.19200e-15      16327.6      128.402
       5985.0224  2.83031e-13  2.20666e-15      16605.7      129.467
       5986.1230  2.84258e-13  2.20938e-15      16704.2      129.833
       5987.2236  2.86253e-13  2.21448e-15      16849.5      130.350
       5988.3242  2.86094e-13  2.21166e-15      16868.5      130.402
       5989.4249  2.85516e-13  2.20842e-15      16861.5      130.421
       5990.5255  2.88558e-13  2.21822e-15      17068.6      131.211
       5991.6261  2.89266e-13  2.21868e-15      17138.4      131.452
       5992.7267  2.83604e-13  2.19500e-15      16830.5      130.263
       5993.8274  2.82320e-13  2.18948e-15      16778.5      130.123
       5994.9280  2.83528e-13  2.19219e-15      16873.3      130.461
       5996.0286  2.76237e-13  2.16224e-15      16460.4      128.844
       5997.1292  2.72381e-13  2.14527e-15      16249.8      127.984
       5998.2299  2.74300e-13  2.15192e-15      16382.3      128.521
       5999.3305  2.72023e-13  2.14356e-15      16264.0      128.161
       6000.4311  2.70869e-13  2.13741e-15      16211.2      127.922
       6001.5317  2.68874e-13  2.12630e-15      16107.6      127.382
       6002.6324  2.63574e-13  2.10546e-15      15806.0      126.260
       6003.7330  2.54940e-13  2.07138e-15      15302.6      124.333
       6004.8336  2.45662e-13  2.03252e-15      14759.5      122.115
       6005.9342  2.36911e-13  1.99550e-15      14247.1      120.003
       6007.0349  2.30041e-13  1.96414e-15      13846.0      118.220
       6008.1355  2.25876e-13  1.94393e-15      13607.1      117.105
       6009.2361  2.24431e-13  1.93703e-15      13531.8      116.791
       6010.3367  2.21564e-13  1.92547e-15      13374.2      116.226
       6011.4374  2.21229e-13  1.92290e-15      13371.4      116.223
       6012.5380  2.23854e-13  1.93210e-15      13547.0      116.925
       6013.6386  2.25541e-13  1.93821e-15      13666.4      117.444
       6014.7392  2.28092e-13  1.94850e-15      13839.1      118.222
       6015.8399  2.27478e-13  1.94332e-15      13821.7      118.077
       6016.9405  2.26466e-13  1.93851e-15      13778.5      117.942
       6018.0411  2.24197e-13  1.92757e-15      13656.8      117.417
       6019.1417  2.23115e-13  1.92192e-15      13607.3      117.213
       6020.2424  2.19985e-13  1.90791e-15      13432.9      116.502
       6021.3430  2.20031e-13  1.90719e-15      13452.5      116.604
       6022.4436  2.20692e-13  1.90981e-15      13509.9      116.911
       6023.5442  2.18292e-13  1.89853e-15      13380.4      116.373
       6024.6449  2.16253e-13  1.88706e-15      13272.7      115.820
       6025.7455  2.16612e-13  1.88648e-15      13311.7      115.932
       6026.8461  2.15109e-13  1.87941e-15      13236.2      115.645
       6027.9467  2.14490e-13  1.87575e-15      13214.8      115.566
       6029.0474  2.13862e-13  1.87206e-15      13193.1      115.487
       6030.1480  2.14024e-13  1.87270e-15      13220.1      115.675
       6031.2486  2.15967e-13  1.87942e-15      13358.1      116.247
       6032.3492  2.13254e-13  1.86468e-15      13209.3      115.501
       6033.4499  2.12333e-13  1.85937e-15      13167.0      115.302
       6034.5505  2.13600e-13  1.86435e-15      13259.1      115.728
       6035.6511  2.12845e-13  1.86047e-15      13227.2      115.619
       6036.7517  2.11672e-13  1.85481e-15      13169.6      115.401
       6037.8524  2.11931e-13  1.85495e-15      13200.4      115.538
       6038.9530  2.15109e-13  1.86764e-15      13411.5      116.443
       6040.0536  2.17449e-13  1.87583e-15      13571.6      117.075
       6041.1542  2.17819e-13  1.87695e-15      13608.9      117.268
       6042.2549  2.16727e-13  1.87178e-15      13555.7      117.075
       6043.3555  2.15653e-13  1.86645e-15      13505.0      116.884
       6044.4561  2.13701e-13  1.85516e-15      13402.1      116.345
       6045.5567  2.11899e-13  1.84505e-15      13309.1      115.886
       6046.6574  2.11931e-13  1.84476e-15      13331.2      116.042
       6047.7580  2.10629e-13  1.83851e-15      13269.3      115.823
       6048.8586  2.10060e-13  1.83459e-15      13253.6      115.753
       6049.9592  2.11679e-13  1.83894e-15      13376.2      116.205
       6051.0599  2.11085e-13  1.83513e-15      13359.6      116.146
       6052.1605  2.10103e-13  1.83086e-15      13319.8      116.070
       6053.2611  2.10831e-13  1.83193e-15      13388.3      116.332
       6054.3617  2.11642e-13  1.83365e-15      13461.4      116.629
       6055.4624  2.11765e-13  1.83322e-15      13489.8      116.779
       6056.5630  2.15692e-13  1.84806e-15      13761.1      117.905
       6057.6636  2.17708e-13  1.85628e-15      13910.4      118.607
       6058.7642  2.17076e-13  1.85149e-15      13889.1      118.463
       6059.8649  2.17489e-13  1.85125e-15      13934.2      118.607
       6060.9655  2.16977e-13  1.84849e-15      13919.8      118.587
       6062.0661  2.17220e-13  1.84817e-15      13953.7      118.722
       6063.1667  2.18757e-13  1.85366e-15      14070.1      119.224
       6064.2674  2.21238e-13  1.86293e-15      14248.5      119.979
       6065.3680  2.23689e-13  1.87214e-15      14424.8      120.726
       6066.4686  2.25620e-13  1.87765e-15      14569.0      121.246
       6067.5692  2.30569e-13  1.89719e-15      14906.0      122.651
       6068.6699  2.35189e-13  1.91513e-15      15221.9      123.951
       6069.7705  2.41466e-13  1.93879e-15      15645.5      125.621
       6070.8711  2.48364e-13  1.96582e-15      16111.0      127.520
       6071.9717  2.48550e-13  1.96517e-15      16142.9      127.634
       6073.0724  2.48310e-13  1.96281e-15      16147.4      127.639
       6074.1730  2.50607e-13  1.97080e-15      16316.1      128.311
       6075.2736  2.56165e-13  1.99112e-15      16695.7      129.772
       6076.3742  2.59019e-13  2.00160e-15      16899.6      130.593
       6077.4748  2.58342e-13  1.99641e-15      16873.2      130.393
       6078.5755  2.57672e-13  1.99280e-15      16847.3      130.295
       6079.6761  2.58953e-13  1.99676e-15      16949.1      130.693
       6080.7767  2.58782e-13  1.99509e-15      16955.8      130.721
       6081.8773  2.58321e-13  1.99392e-15      16944.1      130.787
       6082.9780  2.60112e-13  1.99991e-15      17080.6      131.326
       6084.0786  2.60618e-13  1.99872e-15      17136.2      131.421
       6085.1792  2.61134e-13  1.99906e-15      17194.0      131.625
       6086.2798  2.59781e-13  1.99251e-15      17128.7      131.377
       6087.3805  2.59153e-13  1.98909e-15      17110.0      131.325
       6088.4811  2.56410e-13  1.97836e-15      16952.3      130.798
       6089.5817  2.53762e-13  1.96752e-15      16799.0      130.250
       6090.6823  2.54207e-13  1.96792e-15      16850.6      130.448
       6091.7830  2.54416e-13  1.96758e-15      16886.1      130.592
       6092.8836  2.53313e-13  1.96145e-15      16834.7      130.354
       6093.9842  2.51776e-13  1.95469e-15      16753.2      130.065
       6095.0848  2.48389e-13  1.94102e-15      16548.9      129.320
       6096.1855  2.43620e-13  1.91961e-15      16252.6      128.063
       6097.2861  2.37105e-13  1.89096e-15      15839.5      126.323
       6098.3867  2.29083e-13  1.86007e-15      15324.5      124.429
       6099.4873  2.24212e-13  1.83786e-15      15019.3      123.113
       6100.5880  2.21679e-13  1.82543e-15      14869.9      122.447
       6101.6886  2.19308e-13  1.81662e-15      14731.3      122.025
       6102.7892  2.18375e-13  1.81205e-15      14690.4      121.899
       6103.8898  2.14240e-13  1.79299e-15      14433.6      120.796
       6104.9905  2.11817e-13  1.78161e-15      14292.1      120.212
       6106.0911  2.11080e-13  1.77545e-15      14264.3      119.980
       6107.1917  2.07689e-13  1.76090e-15      14053.8      119.157
       6108.2923  2.06256e-13  1.75468e-15      13975.2      118.891
       6109.3930  2.06327e-13  1.75371e-15      13998.3      118.981
       6110.4936  2.12028e-13  1.77595e-15      14403.9      120.647
       6111.5942  2.20521e-13  1.80946e-15      14999.8      123.079
       6112.6948  2.23330e-13  1.82060e-15      15210.0      123.993
       6113.7955  2.28900e-13  1.84052e-15      15608.7      125.505
       6114.8961  2.39755e-13  1.88125e-15      16370.2      128.450
       6115.9967  2.44821e-13  1.90188e-15      16737.6      130.026
       6117.0973  2.51682e-13  1.92723e-15      17229.5      131.933
       6118.1980  2.60353e-13  1.95709e-15      17848.1      134.165
       6119.2986  2.67282e-13  1.98222e-15      18347.4      136.068
       6120.3992  2.73004e-13  2.00227e-15      18764.4      137.622
       6121.4998  2.77724e-13  2.01736e-15      19113.4      138.838
       6122.6005  2.84208e-13  2.03869e-15      19584.6      140.484
       6123.7011  2.86003e-13  2.04459e-15      19733.5      141.072
       6124.8017  2.90145e-13  2.05849e-15      20044.8      142.211
       6125.9023  2.92878e-13  2.06737e-15      20257.6      142.995
       6127.0030  2.94650e-13  2.07196e-15      20404.3      143.482
       6128.1036  3.01611e-13  2.09428e-15      20909.4      145.187
       6129.2042  3.10078e-13  2.12184e-15      21520.9      147.266
       6130.3048  3.24534e-13  2.16956e-15      22550.7      150.755
       6131.4055  3.44288e-13  2.23287e-15      23950.6      155.331
       6132.5061  3.67723e-13  2.30562e-15      25609.8      160.573
       6133.6067  3.88492e-13  2.36669e-15      27091.0      165.038
       6134.7073  4.02851e-13  2.40919e-15      28132.7      168.243
       6135.8080  4.11863e-13  2.43483e-15      28806.6      170.297
       6136.9086  4.10848e-13  2.42912e-15      28785.2      170.191
       6138.0092  4.05866e-13  2.41270e-15      28483.1      169.319
       6139.1098  3.99816e-13  2.39334e-15      28104.6      168.237
       6140.2105  3.97959e-13  2.38619e-15      28018.9      168.003
       6141.3111  4.06013e-13  2.40851e-15      28626.3      169.814
       6142.4117  4.20298e-13  2.44854e-15      29675.2      172.879
       6143.5123  4.32850e-13  2.48311e-15      30604.5      175.568
       6144.6130  4.38000e-13  2.49609e-15      31012.2      176.733
       6145.7136  4.34314e-13  2.48381e-15      30794.5      176.112
       6146.8142  4.28956e-13  2.46636e-15      30457.1      175.119
       6147.9148  4.24013e-13  2.44993e-15      30147.7      174.192
       6149.0155  4.24943e-13  2.45045e-15      30255.2      174.468
       6150.1161  4.29124e-13  2.46141e-15      30594.7      175.488
       6151.2167  4.30963e-13  2.46557e-15      30767.5      176.023
       6152.3173  4.30070e-13  2.45988e-15      30743.5      175.844
       6153.4180  4.32138e-13  2.46461e-15      30930.2      176.404
       6154.5186  4.33826e-13  2.46851e-15      31089.7      176.903
       6155.6192  4.36779e-13  2.47545e-15      31340.4      177.622
       6156.7198  4.46952e-13  2.50219e-15      32105.7      179.738
       6157.8205  4.53968e-13  2.52060e-15      32639.1      181.224
       6158.9211  4.54867e-13  2.52227e-15      32726.0      181.468
       6160.0217  4.46408e-13  2.49874e-15      32132.3      179.859
       6161.1223  4.34362e-13  2.46423e-15      31279.7      177.457
       6162.2230  4.20821e-13  2.42526e-15      30318.6      174.731
       6163.3236  4.07992e-13  2.38684e-15      29407.9      172.043
       6164.4242  3.95128e-13  2.34836e-15      28495.1      169.355
       6165.5248  3.87249e-13  2.32490e-15      27944.3      167.767
       6166.6255  3.81779e-13  2.30725e-15      27566.7      166.597
       6167.7261  3.78086e-13  2.29554e-15      27317.0      165.855
       6168.8267  3.73190e-13  2.28063e-15      26980.1      164.880
       6169.9273  3.64298e-13  2.25384e-15      26353.6      163.044
       6171.0280  3.56580e-13  2.22833e-15      25811.3      161.300
       6172.1286  3.48367e-13  2.20185e-15      25232.7      159.483
       6173.2292  3.41874e-13  2.18133e-15      24778.5      158.100
       6174.3298  3.34242e-13  2.15611e-15      24241.6      156.376
       6175.4305  3.28006e-13  2.13552e-15      23805.2      154.987
       6176.5311  3.26041e-13  2.12685e-15      23678.5      154.461
       6177.6317  3.23650e-13  2.11852e-15      23521.5      153.964
       6178.7323  3.19572e-13  2.10491e-15      23242.4      153.090
       6179.8330  3.16638e-13  2.09381e-15      23046.4      152.397
       6180.9336  3.13476e-13  2.08296e-15      22836.4      151.741
       6182.0342  3.11996e-13  2.07785e-15      22750.6      151.516
       6183.1348  3.08725e-13  2.06537e-15      22535.7      150.764
       6184.2355  3.06614e-13  2.05762e-15      22407.0      150.369
       6185.3361  3.03181e-13  2.04476e-15      22183.9      149.616
       6186.4367  2.97754e-13  2.02504e-15      21817.2      148.380
       6187.5373  2.93598e-13  2.00962e-15      21541.7      147.449
       6188.6379  2.88413e-13  1.99071e-15      21187.5      146.242
       6189.7386  2.82761e-13  1.96938e-15      20799.2      144.863
       6190.8392  2.80451e-13  1.96085e-15      20656.5      144.425
       6191.9398  2.77879e-13  1.95126e-15      20494.1      143.909
       6193.0404  2.72359e-13  1.93049e-15      20113.5      142.564
       6194.1411  2.66533e-13  1.90796e-15      19709.3      141.088
       6195.2417  2.58298e-13  1.87666e-15      19126.3      138.962
       6196.3423  2.52677e-13  1.85407e-15      18735.4      137.475
       6197.4429  2.49464e-13  1.84148e-15      18521.9      136.724
       6198.5436  2.49047e-13  1.83934e-15      18515.6      136.747
       6199.6442  2.50615e-13  1.84365e-15      18657.1      137.251
       6200.7448  2.48734e-13  1.83587e-15      18541.0      136.849
       6201.8454  2.45019e-13  1.82184e-15      18286.9      135.972
       6202.9461  2.42595e-13  1.81207e-15      18131.6      135.435
       6204.0467  2.45307e-13  1.82040e-15      18359.4      136.243
       6205.1473  2.49929e-13  1.83550e-15      18729.4      137.551
       6206.2479  2.52030e-13  1.84205e-15      18910.4      138.213
       6207.3486  2.54037e-13  1.84769e-15      19083.0      138.797
       6208.4492  2.54445e-13  1.84835e-15      19133.7      138.991
       6209.5498  2.54465e-13  1.84783e-15      19152.7      139.080
       6210.6504  2.54031e-13  1.84548e-15      19137.9      139.033
       6211.7511  2.54839e-13  1.84794e-15      19216.7      139.348
       6212.8517  2.58541e-13  1.86065e-15      19513.4      140.433
       6213.9523  2.58883e-13  1.86040e-15      19557.2      140.543
       6215.0529  2.60942e-13  1.86666e-15      19731.4      141.150
       6216.1536  2.65345e-13  1.88200e-15      20083.3      142.444
       6217.2542  2.69160e-13  1.89487e-15      20392.2      143.561
       6218.3548  2.75785e-13  1.91554e-15      20916.9      145.284
       6219.4554  2.83716e-13  1.94196e-15      21541.5      147.445
       6220.5561  2.93318e-13  1.97358e-15      22297.1      150.025
       6221.6567  3.09562e-13  2.02568e-15      23561.2      154.177
       6222.7573  3.27878e-13  2.08290e-15      24990.7      158.758
       6223.8579  3.50079e-13  2.14986e-15      26720.8      164.094
       6224.9586  3.64341e-13  2.19189e-15      27848.8      167.539
       6226.0592  3.75751e-13  2.22418e-15      28756.4      170.217
       6227.1598  3.87358e-13  2.25763e-15      29679.5      172.980
       6228.2604  3.98944e-13  2.28946e-15      30602.5      175.622
       6229.3611  4.16611e-13  2.33718e-15      31993.7      179.484
       6230.4617  4.38051e-13  2.39516e-15      33677.9      184.143
       6231.5623  4.66539e-13  2.47004e-15      35908.4      190.113
       6232.6629  4.94457e-13  2.54185e-15      38099.5      195.858
       6233.7636  5.11501e-13  2.58451e-15      39457.1      199.369
       6234.8642  5.16358e-13  2.59601e-15      39879.2      200.494
       6235.9648  5.17106e-13  2.59681e-15      39986.3      200.804
       6237.0654  5.18576e-13  2.59867e-15      40147.9      201.188
       6238.1661  5.18877e-13  2.59649e-15      40217.9      201.253
       6239.2667  5.20377e-13  2.59762e-15      40389.9      201.619
       6240.3673  5.24400e-13  2.60594e-15      40761.5      202.560
       6241.4679  5.29032e-13  2.61561e-15      41179.7      203.598
       6242.5686  5.30106e-13  2.61614e-15      41325.7      203.947
       6243.6692  5.27840e-13  2.60841e-15      41210.0      203.646
       6244.7698  5.30690e-13  2.61286e-15      41491.8      204.285
       6245.8704  5.37957e-13  2.62894e-15      42112.8      205.801
       6246.9711  5.43673e-13  2.64112e-15      42613.8      207.014
       6248.0717  5.45144e-13  2.64284e-15      42782.7      207.409
       6249.1723  5.39969e-13  2.62890e-15      42429.7      206.574
       6250.2729  5.31039e-13  2.60518e-15      41780.4      204.967
       6251.3736  5.10735e-13  2.55352e-15      40233.1      201.153
       6252.4742  4.88607e-13  2.49688e-15      38537.9      196.936
       6253.5748  4.74291e-13  2.45894e-15      37447.9      194.147
       6254.6754  4.61593e-13  2.42495e-15      36479.2      191.642
       6255.7761  4.53421e-13  2.40308e-15      35866.0      190.085
       6256.8767  4.48765e-13  2.39120e-15      35525.1      189.292
       6257.9773  4.39922e-13  2.36756e-15      34847.3      187.541
       6259.0779  4.25976e-13  2.32846e-15      33761.6      184.547
       6260.1786  4.05759e-13  2.27107e-15      32171.3      180.066
       6261.2792  3.79429e-13  2.19602e-15      30090.3      174.154
       6262.3798  3.54548e-13  2.12330e-15      28115.9      168.379
       6263.4804  3.37721e-13  2.07274e-15      26775.9      164.335
       6264.5811  3.26063e-13  2.03826e-15      25838.6      161.520
       6265.6817  3.17730e-13  2.01357e-15      25163.0      159.467
       6266.7823  3.11818e-13  1.99498e-15      24677.6      157.885
       6267.8829  3.04618e-13  1.97208e-15      24090.9      155.963
       6268.9836  2.98793e-13  1.95379e-15      23613.6      154.409
       6270.0842  2.96679e-13  1.94744e-15      23430.1      153.798
       6271.1848  2.97339e-13  1.94997e-15      23465.7      153.890
       6272.2854  2.98526e-13  1.95440e-15      23542.7      154.131
       6273.3861  2.99347e-13  1.95822e-15      23590.8      154.323
       6274.4867  2.96694e-13  1.95062e-15      23365.1      153.615
       6275.5873  2.90197e-13  1.92991e-15      22837.4      151.877
       6276.6879  2.81595e-13  1.90179e-15      22149.2      149.587
       6277.7886  2.73310e-13  1.87434e-15      21489.1      147.371
       6278.8892  2.70336e-13  1.86325e-15      21247.4      146.444
       6279.9898  2.68898e-13  1.85838e-15      21128.8      146.022
       6281.0904  2.65325e-13  1.84725e-15      20843.8      145.119
       6282.1911  2.59721e-13  1.82698e-15      20399.7      143.499
       6283.2917  2.55437e-13  1.81170e-15      20063.2      142.300
       6284.3923  2.60102e-13  1.82889e-15      20432.9      143.673
       6285.4929  2.77492e-13  1.88926e-15      21803.6      148.447
       6286.5936  2.97119e-13  1.95591e-15      23351.5      153.721
       6287.6942  3.08421e-13  1.99201e-15      24250.9      156.630
       6288.7948  3.12842e-13  2.00424e-15      24609.8      157.664
       6289.8954  3.13515e-13  2.00484e-15      24674.7      157.787
       6290.9961  3.13475e-13  2.00372e-15      24686.6      157.796
       6292.0967  3.09081e-13  1.98916e-15      24364.8      156.805
       6293.1973  3.04550e-13  1.97398e-15      24035.5      155.789
       6294.2979  3.02516e-13  1.96657e-15      23903.9      155.393
       6295.3986  2.97251e-13  1.94855e-15      23518.2      154.167
       6296.4992  2.94122e-13  1.93832e-15      23301.3      153.560
       6297.5998  2.94634e-13  1.94209e-15      23374.7      154.075
       6298.7004  2.99081e-13  1.96173e-15      23761.5      155.856
       6299.8010  3.07610e-13  1.99515e-15      24481.1      158.784
       6300.9017  3.16638e-13  2.02073e-15      25249.4      161.137
       6302.0023  3.28604e-13  2.04737e-15      26258.2      163.602
       6303.1029  3.35625e-13  2.05993e-15      26875.7      164.953
       6304.2035  3.38446e-13  2.06320e-15      27159.3      165.566
       6305.3042  3.42421e-13  2.07411e-15      27536.9      166.796
       6306.4048  3.43201e-13  2.07531e-15      27661.2      167.265
       6307.5054  3.44823e-13  2.07723e-15      27854.3      167.795
       6308.6060  3.48153e-13  2.08294e-15      28187.2      168.639
       6309.7067  3.50054e-13  2.08508e-15      28408.0      169.211
       6310.8073  3.49413e-13  2.08050e-15      28423.0      169.238
       6311.9079  3.48186e-13  2.07434e-15      28390.5      169.138
       6313.0085  3.42288e-13  2.05464e-15      27975.4      167.927
       6314.1092  3.32031e-13  2.02117e-15      27199.7      165.572
       6315.2098  3.18836e-13  1.97911e-15      26170.2      162.446
       6316.3104  3.09394e-13  1.94813e-15      25444.6      160.214
       6317.4110  3.01063e-13  1.92015e-15      24806.4      158.212
       6318.5117  2.89992e-13  1.88339e-15      23937.6      155.466
       6319.6123  2.80459e-13  1.85089e-15      23192.1      153.057
       6320.7129  2.73881e-13  1.82823e-15      22686.6      151.440
       6321.8135  2.72567e-13  1.82293e-15      22616.1      151.256
       6322.9142  2.73214e-13  1.82340e-15      22700.9      151.503
       6324.0148  2.71895e-13  1.81716e-15      22615.6      151.148
       6325.1154  2.75235e-13  1.82657e-15      22915.5      152.076
       6326.2160  2.79344e-13  1.83961e-15      23279.5      153.306
       6327.3167  2.76445e-13  1.83005e-15      23059.1      152.650
       6328.4173  2.76229e-13  1.82903e-15      23062.1      152.704
       6329.5179  2.81722e-13  1.84774e-15      23539.7      154.391
       6330.6185  2.91213e-13  1.87748e-15      24352.2      157.001
       6331.7192  3.02245e-13  1.91006e-15      25294.1      159.848
       6332.8198  3.08892e-13  1.92928e-15      25867.9      161.566
       6333.9204  3.12221e-13  1.93846e-15      26164.2      162.444
       6335.0210  3.14066e-13  1.94356e-15      26336.1      162.978
       6336.1217  3.11178e-13  1.93434e-15      26110.7      162.309
       6337.2223  3.11546e-13  1.93461e-15      26156.5      162.424
       6338.3229  3.16303e-13  1.94819e-15      26570.1      163.652
       6339.4235  3.20374e-13  1.96033e-15      26922.6      164.737
       6340.5242  3.25605e-13  1.97617e-15      27373.0      166.133
       6341.6248  3.27172e-13  1.98115e-15      27515.6      166.617
       6342.7254  3.30829e-13  1.99114e-15      27834.1      167.523
       6343.8260  3.34431e-13  2.00084e-15      28148.3      168.406
       6344.9267  3.36864e-13  2.00802e-15      28363.6      169.073
       6346.0273  3.41949e-13  2.02296e-15      28803.6      170.402
       6347.1279  3.45604e-13  2.03387e-15      29124.9      171.400
       6348.2285  3.47408e-13  2.03878e-15      29290.5      171.892
       6349.3292  3.46155e-13  2.03429e-15      29198.6      171.595
       6350.4298  3.45469e-13  2.03189e-15      29156.4      171.484
       6351.5304  3.44997e-13  2.02984e-15      29136.9      171.431
       6352.6310  3.46513e-13  2.03337e-15      29285.5      171.850
       6353.7317  3.51980e-13  2.04869e-15      29768.4      173.266
       6354.8323  3.61853e-13  2.07688e-15      30626.4      175.782
       6355.9329  3.72009e-13  2.10535e-15      31510.9      178.333
       6357.0335  3.78064e-13  2.12161e-15      32050.3      179.859
       6358.1342  3.81679e-13  2.13001e-15      32385.0      180.728
       6359.2348  3.79019e-13  2.12128e-15      32187.3      180.145
       6360.3354  3.77222e-13  2.11538e-15      32063.2      179.804
       6361.4360  3.74839e-13  2.10853e-15      31889.4      179.384
       6362.5367  3.71549e-13  2.10110e-15      31642.6      178.938
       6363.6373  3.70064e-13  2.09868e-15      31549.1      178.919
       6364.7379  3.71452e-13  2.09993e-15      31700.5      179.213
       6365.8385  3.75030e-13  2.10541e-15      32039.3      179.868
       6366.9392  3.77931e-13  2.11131e-15      32320.8      180.560
       6368.0398  3.81017e-13  2.11792e-15      32618.8      181.315
       6369.1404  3.83740e-13  2.12422e-15      32886.2      182.044
       6370.2410  3.87897e-13  2.13449e-15      33277.1      183.115
       6371.3417  3.94654e-13  2.15145e-15      33890.9      184.755
       6372.4423  3.95427e-13  2.15247e-15      33991.1      185.027
       6373.5429  3.92837e-13  2.14430e-15      33799.7      184.496
       6374.6435  3.89151e-13  2.13394e-15      33508.4      183.746
       6375.7442  3.83739e-13  2.11798e-15      33067.8      182.512
       6376.8448  3.83099e-13  2.11576e-15      33038.0      182.461
       6377.9454  3.81499e-13  2.11053e-15      32923.6      182.140
       6379.0460  3.80025e-13  2.10657e-15      32818.7      181.922
       6380.1467  3.81373e-13  2.10937e-15      32956.3      182.281
       6381.2473  3.79447e-13  2.10326e-15      32809.5      181.862
       6382.3479  3.74741e-13  2.08976e-15      32422.1      180.803
       6383.4485  3.68173e-13  2.07077e-15      31872.4      179.264
       6384.5492  3.64181e-13  2.05890e-15      31544.7      178.338
       6385.6498  3.60290e-13  2.04815e-15      31221.0      177.482
       6386.7504  3.53667e-13  2.02934e-15      30660.2      175.928
       6387.8510  3.47533e-13  2.01090e-15      30141.3      174.404
       6388.9517  3.46282e-13  2.00623e-15      30045.6      174.074
       6390.0523  3.43878e-13  1.99879e-15      29849.8      173.502
       6391.1529  3.45768e-13  2.00415e-15      30026.7      174.042
       6392.2535  3.45246e-13  2.00235e-15      29994.3      173.960
       6393.3542  3.40622e-13  1.98817e-15      29605.2      172.802
       6394.4548  3.39030e-13  1.98322e-15      29480.6      172.452
       6395.5554  3.36407e-13  1.97523e-15      29266.1      171.838
       6396.6560  3.35289e-13  1.97099e-15      29182.9      171.551
       6397.7567  3.34518e-13  1.96837e-15      29131.5      171.416
       6398.8573  3.36087e-13  1.97236e-15      29287.1      171.875
       6399.9579  3.43780e-13  1.99465e-15      29977.5      173.932
       6401.0585  3.57966e-13  2.03405e-15      31235.3      177.487
       6402.1592  3.61746e-13  2.04402e-15      31586.4      178.476
       6403.2598  3.64686e-13  2.05112e-15      31864.5      179.217
       6404.3604  3.62485e-13  2.04442e-15      31696.1      178.767
       6405.4610  3.65398e-13  2.05179e-15      31978.9      179.569
       6406.5617  3.68411e-13  2.05935e-15      32272.5      180.398
       6407.6623  3.73752e-13  2.07315e-15      32770.8      181.775
       6408.7629  3.83712e-13  2.09911e-15      33675.3      184.222
       6409.8635  3.89452e-13  2.11410e-15      34210.7      185.709
       6410.9641  4.04592e-13  2.15357e-15      35573.5      189.351
       6412.0648  4.12399e-13  2.17267e-15      36293.5      191.208
       6413.1654  4.26670e-13  2.20888e-15      37584.3      194.575
       6414.2660  4.40359e-13  2.24265e-15      38826.0      197.733
       6415.3666  4.59511e-13  2.28971e-15      40552.2      202.069
       6416.4673  4.80977e-13  2.34139e-15      42485.9      206.821
       6417.5679  4.98957e-13  2.38332e-15      44115.0      210.720
       6418.6685  5.08645e-13  2.40512e-15      45013.2      212.844
       6419.7691  5.12361e-13  2.41321e-15      45383.4      213.755
       6420.8698  5.11045e-13  2.40902e-15      45305.4      213.566
       6421.9704  5.00950e-13  2.38395e-15      44443.6      211.501
       6423.0710  4.97146e-13  2.37386e-15      44138.3      210.759
       6424.1716  4.96176e-13  2.37116e-15      44084.2      210.673
       6425.2723  4.94771e-13  2.36676e-15      43991.4      210.435
       6426.3729  5.01070e-13  2.38083e-15      44584.9      211.845
       6427.4735  5.05376e-13  2.39020e-15      45001.7      212.837
       6428.5741  5.02751e-13  2.38405e-15      44797.5      212.431
       6429.6748  4.90963e-13  2.35456e-15      43776.9      209.945
       6430.7754  4.84126e-13  2.33741e-15      43196.7      208.558
       6431.8760  4.71209e-13  2.30509e-15      42072.8      205.815
       6432.9766  4.63118e-13  2.28541e-15      41378.5      204.196
       6434.0773  4.57045e-13  2.26940e-15      40863.7      202.904
       6435.1779  4.52832e-13  2.25840e-15      40510.4      202.037
       6436.2785  4.61920e-13  2.28054e-15      41344.1      204.120
       6437.3791  4.75261e-13  2.31228e-15      42558.5      207.059
       6438.4798  5.05344e-13  2.38323e-15      45272.6      213.508
       6439.5804  5.40613e-13  2.46420e-15      48453.9      220.861
       6440.6810  5.69667e-13  2.52857e-15      51080.9      226.732
       6441.7816  5.94248e-13  2.58147e-15      53308.9      231.579
       6442.8823  6.08837e-13  2.61250e-15      54642.1      234.467
       6443.9829  6.16080e-13  2.62707e-15      55316.9      235.880
       6445.0835  6.17925e-13  2.63082e-15      55507.4      236.323
       6446.1841  6.07628e-13  2.60790e-15      54607.0      234.370
       6447.2848  5.91801e-13  2.57338e-15      53208.5      231.371
       6448.3854  5.87258e-13  2.56316e-15      52823.8      230.556
       6449.4860  5.88523e-13  2.56559e-15      52960.1      230.873
       6450.5866  5.94577e-13  2.57790e-15      53523.5      232.061
       6451.6873  5.94695e-13  2.57778e-15      53551.1      232.124
       6452.7879  5.97071e-13  2.58268e-15      53778.7      232.624
       6453.8885  5.98152e-13  2.58484e-15      53889.5      232.877
       6454.9891  6.03264e-13  2.59562e-15      54363.8      233.908
       6456.0898  5.93436e-13  2.57416e-15      53491.6      232.032
       6457.1904  5.93871e-13  2.57494e-15      53544.4      232.161
       6458.2910  5.87172e-13  2.55969e-15      52959.3      230.868
       6459.3916  5.79721e-13  2.54317e-15      52310.0      229.478
       6460.4923  5.75978e-13  2.53469e-15      51996.4      228.820
       6461.5929  5.72678e-13  2.52689e-15      51724.0      228.227
       6462.6935  5.68399e-13  2.51740e-15      51362.8      227.483
       6463.7941  5.63667e-13  2.50659e-15      50960.3      226.617
       6464.8948  5.78619e-13  2.53902e-15      52338.0      229.663
       6465.9954  5.83093e-13  2.54886e-15      52768.7      230.666
       6467.0960  5.86732e-13  2.55444e-15      53124.2      231.285
       6468.1966  5.88025e-13  2.55657e-15      53267.7      231.593
       6469.2973  5.67956e-13  2.51271e-15      51475.0      227.732
       6470.3979  5.36812e-13  2.44362e-15      48676.4      221.580
       6471.4985  5.09086e-13  2.37946e-15      46185.2      215.868
       6472.5991  4.77609e-13  2.30366e-15      43350.9      209.095
       6473.6998  4.57166e-13  2.25365e-15      41515.9      204.658
       6474.8004  4.45315e-13  2.22355e-15      40459.7      202.024
       6475.9010  4.46286e-13  2.22523e-15      40567.9      202.277
       6477.0016  4.39996e-13  2.20898e-15      40022.8      200.932
       6478.1023  4.38335e-13  2.20488e-15      39898.6      200.696
       6479.2029  4.38396e-13  2.20423e-15      39931.4      200.773
       6480.3035  4.36485e-13  2.19791e-15      39786.8      200.346
       6481.4041  4.32874e-13  2.18772e-15      39487.6      199.568
       6482.5048  4.29402e-13  2.17886e-15      39200.9      198.912
       6483.6054  4.32059e-13  2.18358e-15      39473.7      199.496
       6484.7060  4.31566e-13  2.18276e-15      39458.9      199.574
       6485.8066  4.29540e-13  2.17678e-15      39303.8      199.180
       6486.9073  4.23192e-13  2.15988e-15      38752.6      197.785
       6488.0079  4.21931e-13  2.15540e-15      38666.7      197.525
       6489.1085  4.20312e-13  2.15026e-15      38547.9      197.206
       6490.2091  4.17135e-13  2.14198e-15      38285.9      196.597
       6491.3098  4.10427e-13  2.12357e-15      37699.1      195.057
       6492.4104  4.14926e-13  2.13488e-15      38141.5      196.246
       6493.5110  4.16537e-13  2.13849e-15      38319.0      196.729
       6494.6116  4.15675e-13  2.13543e-15      38268.9      196.597
       6495.7123  4.18486e-13  2.14246e-15      38557.3      197.396
       6496.8129  4.27263e-13  2.16411e-15      39396.2      199.544
       6497.9135  4.40374e-13  2.19755e-15      40636.3      202.782
       6499.0141  4.55384e-13  2.23425e-15      42053.5      206.327
       6500.1148  4.78787e-13  2.28884e-15      44241.2      211.494
       6501.2154  4.92257e-13  2.31820e-15      45513.0      214.336
       6502.3160  4.92793e-13  2.31916e-15      45589.6      214.552
       6503.4166  4.93262e-13  2.31971e-15      45657.5      214.718
       6504.5173  4.98954e-13  2.33281e-15      46208.3      216.042
       6505.6179  4.92337e-13  2.31719e-15      45618.8      214.705
       6506.7185  4.93237e-13  2.31834e-15      45725.5      214.921
       6507.8191  5.02209e-13  2.33860e-15      46581.1      216.910
       6508.9198  5.22404e-13  2.38410e-15      48478.9      221.244
       6510.0204  5.65447e-13  2.47855e-15      52500.2      230.126
       6511.1210  6.04885e-13  2.56292e-15      56190.7      238.082
       6512.2216  6.60793e-13  2.67678e-15      61415.7      248.786
       6513.3223  7.21202e-13  2.79547e-15      67064.5      259.951
       6514.4229  7.88848e-13  2.92188e-15      73392.5      271.844
       6515.5235  8.52836e-13  3.03631e-15      79388.6      282.644
       6516.6241  9.20384e-13  3.15326e-15      85725.7      293.698
       6517.7248  9.87783e-13  3.26529e-15      92056.2      304.308
       6518.8254  1.05910e-12  3.37977e-15      98759.0      315.158
       6519.9260  1.11909e-12  3.47298e-15      104413.      324.035
       6521.0266  1.19347e-12  3.58508e-15      111417.      334.686
       6522.1272  1.25602e-12  3.67687e-15      117323.      343.452
       6523.2279  1.30668e-12  3.74855e-15      122121.      350.336
       6524.3285  1.35905e-12  3.82158e-15      127083.      357.350
       6525.4291  1.39115e-12  3.86592e-15      130146.      361.668
       6526.5297  1.41313e-12  3.89556e-15      132263.      364.606
       6527.6304  1.43389e-12  3.92306e-15      134254.      367.312
       6528.7310  1.43130e-12  3.91953e-15      134032.      367.037
       6529.8316  1.40217e-12  3.87962e-15      131324.      363.354
       6530.9322  1.36586e-12  3.82949e-15      127942.      358.713
       6532.0329  1.32287e-12  3.76965e-15      123934.      353.162
       6533.1335  1.27522e-12  3.70192e-15      119485.      346.862
       6534.2341  1.23977e-12  3.64988e-15      116169.      342.001
       6535.3347  1.21295e-12  3.61008e-15      113661.      338.287
       6536.4354  1.20807e-12  3.60315e-15      113199.      337.623
       6537.5360  1.24348e-12  3.65553e-15      116509.      342.507
       6538.6366  1.31753e-12  3.76195e-15      123434.      352.443
       6539.7372  1.41761e-12  3.90161e-15      132792.      365.477
       6540.8379  1.55395e-12  4.08401e-15      145544.      382.510
       6541.9385  1.71477e-12  4.29002e-15      160584.      401.750
       6543.0391  1.89069e-12  4.50436e-15      177021.      421.732
       6544.1397  2.08179e-12  4.72659e-15      194856.      442.410
       6545.2404  2.32933e-12  4.99880e-15      217957.      467.743
       6546.3410  2.71945e-12  5.39862e-15      254388.      505.009
       6547.4416  3.19428e-12  5.85084e-15      298705.      547.127
       6548.5422  3.56026e-12  6.17961e-15      332827.      577.694
       6549.6429  3.77872e-12  6.36750e-15      353151.      595.091
       6550.7435  3.90872e-12  6.47644e-15      365224.      605.148
       6551.8441  3.96686e-12  6.52464e-15      370659.      609.655
       6552.9447  3.97380e-12  6.53130e-15      371299.      610.264
       6554.0454  3.98582e-12  6.54101e-15      372414.      611.157
       6555.1460  3.99996e-12  6.55219e-15      373727.      612.188
       6556.2466  4.03347e-12  6.57890e-15      376856.      614.682
       6557.3472  4.05339e-12  6.59474e-15      378749.      616.214
       6558.4479  4.04804e-12  6.59028e-15      378281.      615.849
       6559.5485  4.04298e-12  6.58570e-15      377875.      615.529
       6560.6491  4.01554e-12  6.56345e-15      375385.      613.573
       6561.7497  3.97611e-12  6.53161e-15      371776.      610.722
       6562.8504  3.94950e-12  6.50942e-15      369364.      608.772
       6563.9510  3.92978e-12  6.49202e-15      367596.      607.270
       6565.0516  3.89628e-12  6.46317e-15      364537.      604.696
       6566.1522  3.86453e-12  6.43574e-15      361668.      602.301
       6567.2529  3.84349e-12  6.41729e-15      359830.      600.789
       6568.3535  3.85131e-12  6.42248e-15      360701.      601.509
       6569.4541  3.86431e-12  6.43182e-15      362060.      602.619
       6570.5547  3.86963e-12  6.43473e-15      362724.      603.166
       6571.6554  3.88996e-12  6.44981e-15      364803.      604.868
       6572.7560  3.92531e-12  6.47734e-15      368294.      607.738
       6573.8566  3.93937e-12  6.48720e-15      369796.      608.966
       6574.9572  3.93264e-12  6.47984e-15      369354.      608.587
       6576.0579  3.89693e-12  6.44917e-15      366196.      606.032
       6577.1585  3.82349e-12  6.38703e-15      359489.      600.516
       6578.2591  3.76417e-12  6.33555e-15      354113.      596.014
       6579.3597  3.66827e-12  6.25207e-15      345288.      588.496
       6580.4604  3.55867e-12  6.15647e-15      335162.      579.828
       6581.5610  3.40736e-12  6.02257e-15      321095.      567.540
       6582.6616  3.24724e-12  5.87865e-15      306180.      554.293
       6583.7622  3.08860e-12  5.73174e-15      291388.      540.749
       6584.8629  2.90090e-12  5.55333e-15      273835.      524.216
       6585.9635  2.72884e-12  5.38480e-15      257741.      508.597
       6587.0641  2.56926e-12  5.22337e-15      242806.      493.632
       6588.1647  2.41617e-12  5.06418e-15      228469.      478.861
       6589.2654  2.27240e-12  4.91031e-15      214997.      464.577
       6590.3660  2.14604e-12  4.77119e-15      203158.      451.672
       6591.4666  2.03073e-12  4.64003e-15      192352.      439.506
       6592.5672  1.92100e-12  4.51196e-15      182063.      427.620
       6593.6679  1.82625e-12  4.39842e-15      173181.      417.097
       6594.7685  1.73889e-12  4.29109e-15      164991.      407.152
       6595.8691  1.65322e-12  4.18300e-15      156953.      397.123
       6596.9697  1.56352e-12  4.06702e-15      148521.      386.333
       6598.0704  1.47784e-12  3.95316e-15      140471.      375.754
       6599.1710  1.41080e-12  3.86128e-15      134182.      367.250
       6600.2716  1.34576e-12  3.77013e-15      128078.      358.807
       6601.3722  1.26927e-12  3.66068e-15      120872.      348.605
       6602.4729  1.19722e-12  3.55490e-15      114081.      338.742
       6603.5735  1.13559e-12  3.46149e-15      108276.      330.045
       6604.6741  1.07497e-12  3.36693e-15      102560.      321.228
       6605.7747  1.01010e-12  3.26290e-15      96430.2      311.496
       6606.8754  9.48054e-13  3.16060e-15      90541.3      301.845
       6607.9760  8.91447e-13  3.06431e-15      85161.8      292.740
       6609.0766  8.31626e-13  2.95975e-15      79470.8      282.836
       6610.1772  7.71856e-13  2.85164e-15      73781.3      272.587
       6611.2779  7.12883e-13  2.74027e-15      68164.6      262.020
       6612.3785  6.47089e-13  2.61070e-15      61892.1      249.705
       6613.4791  5.87199e-13  2.48755e-15      56180.7      237.998
       6614.5797  5.53930e-13  2.41644e-15      53013.6      231.264
       6615.6804  5.34263e-13  2.37314e-15      51146.8      227.188
       6616.7810  5.12392e-13  2.32431e-15      49067.7      222.581
       6617.8816  4.94406e-13  2.28261e-15      47359.6      218.654
       6618.9822  4.77495e-13  2.24305e-15      45753.5      214.928
       6620.0829  4.60686e-13  2.20314e-15      44155.0      211.163
       6621.1835  4.45555e-13  2.16639e-15      42712.9      207.680
       6622.2841  4.31191e-13  2.13121e-15      41343.2      204.343
       6623.3847  4.19295e-13  2.10181e-15      40209.1      201.557
       6624.4854  4.11966e-13  2.08308e-15      39512.6      199.793
       6625.5860  4.03377e-13  2.06104e-15      38695.0      197.711
       6626.6866  3.96013e-13  2.04236e-15      37981.3      195.881
       6627.7872  3.89524e-13  2.02629e-15      37341.6      194.249
       6628.8879  3.83822e-13  2.01217e-15      36775.6      192.794
       6629.9885  3.78013e-13  1.99726e-15      36208.8      191.312
       6631.0891  3.71835e-13  1.98067e-15      35609.2      189.682
       6632.1897  3.66951e-13  1.96778e-15      35134.4      188.409
       6633.2903  3.60420e-13  1.95091e-15      34502.0      186.755
       6634.3910  3.59243e-13  1.94830e-15      34382.3      186.467
       6635.4916  3.58405e-13  1.94586e-15      34295.1      186.195
       6636.5922  3.59466e-13  1.94821e-15      34389.5      186.382
       6637.6928  3.61264e-13  1.95285e-15      34554.4      186.787
       6638.7935  3.62041e-13  1.95502e-15      34621.6      186.957
       6639.8941  3.62086e-13  1.95540e-15      34618.7      186.954
       6640.9947  3.58584e-13  1.94621e-15      34276.8      186.037
       6642.0953  3.57628e-13  1.94397e-15      34178.3      185.785
       6643.1960  3.53508e-13  1.93248e-15      33778.4      184.653
       6644.2966  3.51186e-13  1.92632e-15      33551.4      184.036
       6645.3972  3.52154e-13  1.92920e-15      33639.2      184.285
       6646.4978  3.52107e-13  1.92909e-15      33630.6      184.252
       6647.5985  3.49696e-13  1.92268e-15      33396.2      183.617
       6648.6991  3.51176e-13  1.92678e-15      33533.4      183.986
       6649.7997  3.51897e-13  1.92832e-15      33610.1      184.176
       6650.9003  3.49298e-13  1.92099e-15      33379.4      183.572
       6652.0010  3.46612e-13  1.91273e-15      33142.5      182.892
       6653.1016  3.44146e-13  1.90471e-15      32926.5      182.235
       6654.2022  3.45702e-13  1.90875e-15      33095.5      182.733
       6655.3028  3.41892e-13  1.89811e-15      32752.6      181.836
       6656.4035  3.39974e-13  1.89198e-15      32590.8      181.371
       6657.5041  3.39539e-13  1.88984e-15      32575.2      181.310
       6658.6047  3.39497e-13  1.88908e-15      32597.3      181.383
       6659.7053  3.33315e-13  1.87112e-15      32025.3      179.779
       6660.8060  3.35652e-13  1.87719e-15      32269.6      180.473
       6661.9066  3.37716e-13  1.88271e-15      32487.8      181.114
       6663.0072  3.41266e-13  1.89128e-15      32849.5      182.050
       6664.1078  3.43220e-13  1.89639e-15      33057.7      182.653
       6665.2085  3.42335e-13  1.89310e-15      32992.7      182.448
       6666.3091  3.42246e-13  1.89244e-15      33004.3      182.497
       6667.4097  3.42558e-13  1.89248e-15      33050.6      182.590
       6668.5103  3.38847e-13  1.88177e-15      32705.5      181.629
       6669.6110  3.35942e-13  1.87356e-15      32436.9      180.901
       6670.7116  3.30224e-13  1.85755e-15      31895.7      179.417
       6671.8122  3.31096e-13  1.85936e-15      31990.8      179.653
       6672.9128  3.32029e-13  1.86130e-15      32092.0      179.902
       6674.0135  3.33985e-13  1.86654e-15      32292.0      180.470
       6675.1141  3.36790e-13  1.87380e-15      32574.4      181.234
       6676.2147  3.33051e-13  1.86345e-15      32223.7      180.295
       6677.3153  3.32922e-13  1.86221e-15      32221.9      180.234
       6678.4160  3.36093e-13  1.87098e-15      32537.6      181.132
       6679.5166  3.34020e-13  1.86497e-15      32345.5      180.598
       6680.6172  3.33525e-13  1.86291e-15      32302.2      180.425
       6681.7178  3.38499e-13  1.87705e-15      32788.5      181.819
       6682.8185  3.39194e-13  1.87958e-15      32864.7      182.113
       6683.9191  3.39642e-13  1.88005e-15      32918.9      182.220
       6685.0197  3.41224e-13  1.88374e-15      33083.3      182.637
       6686.1203  3.40540e-13  1.88163e-15      33027.9      182.493
       6687.2210  3.37012e-13  1.87179e-15      32696.5      181.599
       6688.3216  3.38640e-13  1.87578e-15      32865.5      182.047
       6689.4222  3.38485e-13  1.87475e-15      32861.3      182.007
       6690.5228  3.40179e-13  1.87910e-15      33040.8      182.513
       6691.6235  3.38808e-13  1.87437e-15      32925.8      182.154
       6692.7241  3.36682e-13  1.86912e-15      32738.3      181.749
       6693.8247  3.31266e-13  1.85254e-15      32231.1      180.246
       6694.9253  3.27057e-13  1.83995e-15      31840.9      179.130
       6696.0260  3.25257e-13  1.83471e-15      31684.0      178.723
       6697.1266  3.22827e-13  1.82672e-15      31465.4      178.047
       6698.2272  3.18784e-13  1.81634e-15      31088.3      177.132
       6699.3278  3.17427e-13  1.81179e-15      30971.5      176.777
       6700.4285  3.18400e-13  1.81288e-15      31081.2      176.967
       6701.5291  3.21745e-13  1.82272e-15      31420.8      178.001
       6702.6297  3.26543e-13  1.83626e-15      31894.5      179.354
       6703.7303  3.28430e-13  1.84117e-15      32083.7      179.860
       6704.8310  3.28929e-13  1.84256e-15      32132.6      179.997
       6705.9316  3.32780e-13  1.85306e-15      32508.5      181.021
       6707.0322  3.30067e-13  1.84595e-15      32238.3      180.297
       6708.1328  3.27342e-13  1.83889e-15      31965.3      179.569
       6709.2335  3.31693e-13  1.84986e-15      32383.2      180.602
       6710.3341  3.33506e-13  1.85611e-15      32553.2      181.173
       6711.4347  3.33643e-13  1.85671e-15      32559.5      181.192
       6712.5353  3.34430e-13  1.85868e-15      32629.2      181.345
       6713.6360  3.33062e-13  1.85519e-15      32488.7      180.966
       6714.7366  3.36003e-13  1.86439e-15      32768.4      181.823
       6715.8372  3.33062e-13  1.85627e-15      32474.5      180.992
       6716.9378  3.32017e-13  1.85387e-15      32365.6      180.718
       6718.0385  3.34224e-13  1.85953e-15      32573.5      181.230
       6719.1391  3.31171e-13  1.85096e-15      32269.8      180.360
       6720.2397  3.28324e-13  1.84372e-15      31986.4      179.621
       6721.3403  3.27426e-13  1.84065e-15      31893.8      179.293
       6722.4410  3.25564e-13  1.83591e-15      31708.9      178.811
       6723.5416  3.20655e-13  1.82158e-15      31228.0      177.401
       6724.6422  3.16901e-13  1.81130e-15      30862.7      176.401
       6725.7428  3.16383e-13  1.80993e-15      30820.3      176.313
       6726.8435  3.12542e-13  1.79828e-15      30454.5      175.227
       6727.9441  3.09441e-13  1.78920e-15      30165.0      174.416
       6729.0447  3.06934e-13  1.78163e-15      29933.8      173.754
       6730.1453  3.04701e-13  1.77550e-15      29733.5      173.258
       6731.2460  3.01521e-13  1.76610e-15      29442.3      172.452
       6732.3466  2.97958e-13  1.75454e-15      29113.1      171.435
       6733.4472  2.96178e-13  1.74870e-15      28950.1      170.927
       6734.5478  2.90996e-13  1.73270e-15      28453.0      169.419
       6735.6485  2.91071e-13  1.73265e-15      28468.4      169.463
       6736.7491  2.88778e-13  1.72608e-15      28251.5      168.865
       6737.8497  2.86020e-13  1.71756e-15      27986.2      168.058
       6738.9503  2.87886e-13  1.72289e-15      28172.9      168.605
       6740.0510  2.85276e-13  1.71448e-15      27921.6      167.806
       6741.1516  2.86964e-13  1.71969e-15      28088.2      168.325
       6742.2522  2.83526e-13  1.70943e-15      27753.2      167.329
       6743.3528  2.88192e-13  1.72293e-15      28211.3      168.659
       6744.4534  2.90552e-13  1.72946e-15      28443.9      169.307
       6745.5541  2.93230e-13  1.73799e-15      28707.5      170.151
       6746.6547  2.94703e-13  1.74243e-15      28853.2      170.594
       6747.7553  2.94685e-13  1.74261e-15      28852.8      170.619
       6748.8559  2.96740e-13  1.74813e-15      29054.7      171.164
       6749.9566  2.97836e-13  1.75081e-15      29162.5      171.430
       6751.0572  2.97592e-13  1.75061e-15      29138.5      171.409
       6752.1578  2.97567e-13  1.75073e-15      29134.8      171.414
       6753.2584  2.98365e-13  1.75379e-15      29208.6      171.688
       6754.3591  3.00627e-13  1.75989e-15      29425.6      172.260
       6755.4597  3.00643e-13  1.76007e-15      29418.6      172.227
       6756.5603  3.00784e-13  1.76060e-15      29428.5      172.256
       6757.6609  3.00456e-13  1.75944e-15      29393.8      172.127
       6758.7616  3.01251e-13  1.76214e-15      29470.3      172.384
       6759.8622  3.02145e-13  1.76475e-15      29557.1      172.635
       6760.9628  3.04589e-13  1.77176e-15      29798.6      173.336
       6762.0634  3.05261e-13  1.77324e-15      29867.2      173.497
       6763.1641  3.04285e-13  1.77053e-15      29774.6      173.249
       6764.2647  3.04132e-13  1.77049e-15      29765.3      173.278
       6765.3653  3.06587e-13  1.77681e-15      30011.4      173.930
       6766.4659  3.05388e-13  1.77283e-15      29899.7      173.573
       6767.5666  3.04663e-13  1.77071e-15      29834.5      173.399
       6768.6672  3.07411e-13  1.77881e-15      30109.3      174.225
       6769.7678  3.07573e-13  1.77906e-15      30131.0      174.283
       6770.8684  3.09132e-13  1.78346e-15      30289.7      174.749
       6771.9691  3.09816e-13  1.78530e-15      30363.4      174.968
       6773.0697  3.07305e-13  1.77784e-15      30124.1      174.276
       6774.1703  3.08745e-13  1.78163e-15      30269.5      174.671
       6775.2709  3.09383e-13  1.78343e-15      30337.2      174.878
       6776.3716  3.11198e-13  1.78832e-15      30520.4      175.388
       6777.4722  3.11615e-13  1.78954e-15      30565.6      175.532
       6778.5728  3.09972e-13  1.78472e-15      30407.6      175.077
       6779.6734  3.11502e-13  1.78906e-15      30564.0      175.539
       6780.7741  3.12982e-13  1.79311e-15      30714.8      175.969
       6781.8747  3.10727e-13  1.78647e-15      30499.1      175.350
       6782.9753  3.10220e-13  1.78462e-15      30454.6      175.198
       6784.0759  3.12062e-13  1.78991e-15      30640.0      175.743
       6785.1766  3.15361e-13  1.79860e-15      30968.5      176.623
       6786.2772  3.16694e-13  1.80243e-15      31099.9      177.002
       6787.3778  3.14515e-13  1.79692e-15      30882.8      176.443
       6788.4784  3.16577e-13  1.80281e-15      31081.7      177.001
       6789.5791  3.16371e-13  1.80236e-15      31057.3      176.933
       6790.6797  3.17682e-13  1.80625e-15      31178.2      177.270
       6791.7803  3.18668e-13  1.80902e-15      31265.0      177.485
       6792.8809  3.17088e-13  1.80480e-15      31099.5      177.013
       6793.9816  3.17094e-13  1.80538e-15      31089.6      177.009
       6795.0822  3.14982e-13  1.79967e-15      30870.8      176.382
       6796.1828  3.18980e-13  1.81150e-15      31250.1      177.471
       6797.2834  3.21651e-13  1.81934e-15      31503.2      178.190
       6798.3841  3.20321e-13  1.81563e-15      31364.8      177.781
       6799.4847  3.20004e-13  1.81501e-15      31328.1      177.688
       6800.5853  3.18676e-13  1.81154e-15      31192.7      177.318
       6801.6859  3.16909e-13  1.80626e-15      31020.9      176.806
       6802.7866  3.17606e-13  1.80830e-15      31089.6      177.009
       6803.8872  3.18359e-13  1.81073e-15      31164.1      177.252
       6804.9878  3.17143e-13  1.80700e-15      31045.9      176.892
       6806.0884  3.17210e-13  1.80645e-15      31052.9      176.840
       6807.1891  3.18338e-13  1.80960e-15      31162.6      177.145
       6808.2897  3.18163e-13  1.80978e-15      31142.9      177.147
       6809.3903  3.17580e-13  1.80813e-15      31087.0      176.993
       6810.4909  3.19271e-13  1.81271e-15      31257.5      177.469
       6811.5916  3.19696e-13  1.81363e-15      31304.3      177.589
       6812.6922  3.23148e-13  1.82310e-15      31646.2      178.537
       6813.7928  3.27405e-13  1.83503e-15      32067.4      179.730
       6814.8934  3.28730e-13  1.83867e-15      32198.4      180.094
       6815.9941  3.27397e-13  1.83541e-15      32058.5      179.722
       6817.0947  3.27053e-13  1.83498e-15      32011.1      179.603
       6818.1953  3.27677e-13  1.83689e-15      32059.4      179.718
       6819.2959  3.27119e-13  1.83548e-15      31992.7      179.512
       6820.3966  3.29891e-13  1.84355e-15      32251.6      180.234
       6821.4972  3.28801e-13  1.84116e-15      32132.0      179.928
       6822.5978  3.27094e-13  1.83688e-15      31952.4      179.437
       6823.6984  3.29069e-13  1.84283e-15      32133.2      179.950
       6824.7991  3.28582e-13  1.84220e-15      32073.4      179.820
       6825.8997  3.28322e-13  1.84240e-15      32036.6      179.776
       6827.0003  3.26488e-13  1.83934e-15      31845.8      179.410
       6828.1009  3.25013e-13  1.83721e-15      31688.3      179.126
       6829.2016  3.26277e-13  1.84166e-15      31798.3      179.484
       6830.3022  3.24415e-13  1.83624e-15      31604.1      178.884
       6831.4028  3.24260e-13  1.83447e-15      31578.2      178.651
       6832.5034  3.25230e-13  1.83741e-15      31662.1      178.877
       6833.6041  3.24946e-13  1.83836e-15      31624.0      178.911
       6834.7047  3.26222e-13  1.84311e-15      31730.9      179.276
       6835.8053  3.25370e-13  1.83908e-15      31631.5      178.790
       6836.9059  3.22453e-13  1.82927e-15      31332.6      177.749
       6838.0066  3.21299e-13  1.82615e-15      31208.7      177.379
       6839.1072  3.24472e-13  1.83501e-15      31516.4      178.237
       6840.2078  3.24096e-13  1.83412e-15      31483.9      178.173
       6841.3084  3.17522e-13  1.81571e-15      30847.5      176.398
       6842.4091  3.13200e-13  1.80358e-15      30429.1      175.228
       6843.5097  3.10585e-13  1.79562e-15      30175.5      174.457
       6844.6103  3.10508e-13  1.79470e-15      30169.5      174.377
       6845.7109  3.09100e-13  1.79064e-15      30034.9      173.994
       6846.8116  3.09308e-13  1.79109e-15      30057.5      174.052
       6847.9122  3.07165e-13  1.78470e-15      29851.5      173.443
       6849.0128  3.08159e-13  1.78775e-15      29944.6      173.720
       6850.1134  3.06696e-13  1.78342e-15      29788.3      173.218
       6851.2141  3.05088e-13  1.78037e-15      29591.3      172.682
       6852.3147  3.05643e-13  1.78499e-15      29537.1      172.500
       6853.4153  3.10825e-13  1.80553e-15      29854.9      173.422
       6854.5159  3.12569e-13  1.81674e-15      29838.1      173.427
       6855.6166  3.10880e-13  1.81719e-15      29493.3      172.397
       6856.7172  3.11296e-13  1.82387e-15      29348.6      171.952
       6857.8178  3.13099e-13  1.83501e-15      29340.1      171.956
       6858.9184  3.13322e-13  1.84113e-15      29183.2      171.485
       6860.0190  3.13440e-13  1.84779e-15      29016.2      171.056
       6861.1197  3.14302e-13  1.85732e-15      28917.1      170.881
       6862.2203  3.15219e-13  1.86782e-15      28821.9      170.783
       6863.3209  3.15648e-13  1.87824e-15      28681.0      170.664
       6864.4215  2.76941e-13  1.75504e-15      25007.2      158.476
       6865.5222  1.73800e-13  1.40569e-15      15595.8      126.139
       6866.6228  1.49976e-13  1.30948e-15      13374.0      116.771
       6867.7234  1.25943e-13  1.20253e-15      11160.2      106.559
       6868.8240  1.39779e-13  1.25116e-15      12307.6      110.165
       6869.9247  2.21903e-13  1.60078e-15      19413.7      140.048
       6871.0253  2.28555e-13  1.63075e-15      19867.4      141.755
       6872.1259  2.39555e-13  1.67455e-15      20693.6      144.653
       6873.2265  2.47824e-13  1.70723e-15      21282.7      146.614
       6874.3272  2.56747e-13  1.74136e-15      21944.4      148.835
       6875.4278  2.67387e-13  1.77841e-15      22804.8      151.676
       6876.5284  2.74424e-13  1.80082e-15      23421.2      153.694
       6877.6290  2.78518e-13  1.81305e-15      23787.3      154.847
       6878.7297  2.93020e-13  1.85924e-15      25043.4      158.903
       6879.8303  3.00526e-13  1.88229e-15      25702.9      160.985
       6880.9309  3.18840e-13  1.93852e-15      27288.2      165.911
       6882.0315  3.27368e-13  1.96286e-15      28037.8      168.111
       6883.1322  3.18560e-13  1.93574e-15      27302.5      165.905
       6884.2328  3.07641e-13  1.90110e-15      26385.2      163.050
       6885.3334  3.01880e-13  1.88342e-15      25909.3      161.647
       6886.4340  2.92663e-13  1.85413e-15      25135.9      159.245
       6887.5347  2.95050e-13  1.86186e-15      25358.7      160.022
       6888.6353  2.97516e-13  1.86926e-15      25591.4      160.789
       6889.7359  2.90662e-13  1.84730e-15      25025.0      159.046
       6890.8365  2.99634e-13  1.87357e-15      25821.8      161.460
       6891.9372  3.03365e-13  1.88368e-15      26168.1      162.485
       6893.0378  2.94957e-13  1.85581e-15      25469.3      160.248
       6894.1384  3.04886e-13  1.88527e-15      26356.0      162.974
       6895.2390  3.10544e-13  1.90194e-15      26875.3      164.598
       6896.3397  2.95616e-13  1.85461e-15      25619.8      160.731
       6897.4403  3.04480e-13  1.88073e-15      26427.4      163.238
       6898.5409  3.18024e-13  1.92029e-15      27645.7      166.930
       6899.6415  3.10251e-13  1.89415e-15      27013.6      164.924
       6900.7422  2.98289e-13  1.85907e-15      26019.7      162.167
       6901.8428  3.14008e-13  1.90451e-15      27447.8      166.475
       6902.9434  3.23388e-13  1.92973e-15      28328.6      169.043
       6904.0440  3.08745e-13  1.88247e-15      27110.7      165.299
       6905.1447  3.06567e-13  1.87328e-15      26996.4      164.962
       6906.2453  3.23759e-13  1.92146e-15      28601.5      169.746
       6907.3459  3.30640e-13  1.93843e-15      29304.5      171.802
       6908.4465  3.16766e-13  1.89429e-15      28169.1      168.454
       6909.5472  3.13457e-13  1.88099e-15      27982.7      167.918
       6910.6478  3.21432e-13  1.90117e-15      28805.3      170.374
       6911.7484  3.29667e-13  1.92316e-15      29653.9      172.990
       6912.8490  3.16357e-13  1.88205e-15      28562.3      169.921
       6913.9497  3.08517e-13  1.85398e-15      27958.9      168.014
       6915.0503  3.20314e-13  1.88388e-15      29141.3      171.391
       6916.1509  3.28619e-13  1.90355e-15      30011.8      173.846
       6917.2515  3.21461e-13  1.87915e-15      29468.7      172.264
       6918.3522  3.07314e-13  1.83440e-15      28277.5      168.792
       6919.4528  3.09034e-13  1.83666e-15      28534.0      169.584
       6920.5534  3.14957e-13  1.85089e-15      29179.3      171.477
       6921.6540  3.21275e-13  1.86784e-15      29863.4      173.621
       6922.7547  3.17217e-13  1.85583e-15      29582.1      173.066
       6923.8553  3.08207e-13  1.82723e-15      28829.2      170.916
       6924.9559  3.10829e-13  1.82907e-15      29155.9      171.568
       6926.0565  3.14150e-13  1.83551e-15      29547.8      172.641
       6927.1572  3.14587e-13  1.83385e-15      29662.6      172.915
       6928.2578  3.10928e-13  1.82077e-15      29377.6      172.033
       6929.3584  3.04064e-13  1.79542e-15      28874.0      170.493
       6930.4590  3.11798e-13  1.81827e-15      29629.8      172.788
       6931.5597  3.05113e-13  1.79793e-15      29015.5      170.979
       6932.6603  3.08658e-13  1.80797e-15      29373.8      172.058
       6933.7609  3.08739e-13  1.80724e-15      29402.9      172.113
       6934.8615  2.97927e-13  1.77533e-15      28393.7      169.196
       6935.9622  2.89067e-13  1.74906e-15      27569.3      166.814
       6937.0628  2.55149e-13  1.64588e-15      24352.0      157.087
       6938.1634  2.48574e-13  1.62482e-15      23741.7      155.190
       6939.2640      0.00000  6.27739e-17      0.00000      6.00000
