# N Sco 2012
# 2012-06-21T 4: 6:31.7
# 
#     Wavelength       Flux    Uncertainty       Counts  Uncertainty
# 
       2714.3155      0.00000      0.00000      3.48436      7.29379
       2720.0087      0.00000      0.00000      33.8760      8.27038
       2725.7019      0.00000      0.00000      14.4196      7.91591
       2731.3951      0.00000      0.00000      17.7571      8.38923
       2737.0883      0.00000      0.00000      10.8819      7.45745
       2742.7814      0.00000      0.00000      2.37799      6.32218
       2748.4746      0.00000      0.00000      0.00000      6.00000
       2754.1678      0.00000      0.00000      13.3212      7.06535
       2759.8610      0.00000      0.00000      9.53268      6.76237
       2765.5542      0.00000      0.00000      5.77559      6.86273
       2771.2474      0.00000      0.00000      6.19703      6.92568
       2776.9406      0.00000      0.00000      8.39192      6.77901
       2782.6338      0.00000      0.00000      30.1312      8.28765
       2788.3270      0.00000      0.00000      43.0009      8.92321
       2794.0202      0.00000      0.00000      25.5325      8.52226
       2799.7133      0.00000      0.00000      5.45799      7.49074
       2805.4065      0.00000      0.00000      12.2604      7.37686
       2811.0997      0.00000      0.00000      0.00000      6.00000
       2816.7929      0.00000      0.00000      1.82837      6.14693
       2822.4861      0.00000      0.00000      35.7491      8.87384
       2828.1793      0.00000      0.00000      15.6364      7.62625
       2833.8725      0.00000      0.00000      12.7238      7.55823
       2839.5657      0.00000      0.00000      1.76214      6.21914
       2845.2589      0.00000      0.00000      31.2199      8.08928
       2850.9520      0.00000      0.00000      18.0402      7.63552
       2856.6452      0.00000      0.00000      9.78259      8.02107
       2862.3384      0.00000      0.00000      2.93023      6.74362
       2868.0316      0.00000      0.00000      24.7902      7.88615
       2873.7248      0.00000      0.00000      27.6872      8.48576
       2879.4180      0.00000      0.00000      8.90120      6.97606
       2885.1112      0.00000      0.00000      5.74330      6.50969
       2890.8044      0.00000      0.00000      6.34897      6.56344
       2896.4976      0.00000      0.00000      4.00149      6.73304
       2902.1907      0.00000      0.00000      8.43598      7.70133
       2907.8839      0.00000      0.00000      4.12260      7.04340
       2913.5771      0.00000      0.00000      0.00000      6.00000
       2919.2703      0.00000      0.00000      9.82894      6.74127
       2924.9635      0.00000      0.00000      40.9126      9.09046
       2930.6567      0.00000      0.00000      37.4294      8.88703
       2936.3499      0.00000      0.00000      17.6426      7.57206
       2942.0431      0.00000      0.00000     0.978785      6.12941
       2947.7363      0.00000      0.00000      13.1551      7.70696
       2953.4294      0.00000      0.00000      25.7585      8.54728
       2959.1226      0.00000      0.00000      19.3788      7.70017
       2964.8158      0.00000      0.00000      15.6741      7.91156
       2970.5090      0.00000      0.00000      40.3886      8.84936
       2976.2022      0.00000      0.00000      18.2415      7.93532
       2981.8954      0.00000      0.00000      13.9791      7.28165
       2987.5886      0.00000      0.00000      3.23044      6.26876
       2993.2818      0.00000      0.00000      0.00000      6.00000
       2998.9750      0.00000      0.00000      0.00000      6.00000
       3004.6682      0.00000      0.00000      0.00000      6.00000
       3010.3613      0.00000      0.00000      8.14149      7.31244
       3016.0545      0.00000      0.00000      29.6112      8.27694
       3021.7477      0.00000      0.00000      32.1785      8.51624
       3027.4409      0.00000      0.00000      17.6072      8.10334
       3033.1341      0.00000      0.00000      32.4274      8.67256
       3038.8273      0.00000      0.00000      62.3935      10.0266
       3044.5205      0.00000      0.00000      49.0766      9.36340
       3050.2137      0.00000      0.00000      20.9383      8.19652
       3055.9069      0.00000      0.00000      41.7429      9.26588
       3061.6000      0.00000      0.00000      65.9909      10.4092
       3067.2932      0.00000      0.00000      43.9581      9.44146
       3072.9864      0.00000      0.00000      27.9158      8.52458
       3078.6796      0.00000      0.00000      31.0424      8.94203
       3084.3728      0.00000      0.00000      42.6253      8.62579
       3090.0660      0.00000      0.00000      58.5148      10.0521
       3095.7592      0.00000      0.00000      58.6234      10.2872
       3101.4524      0.00000      0.00000      80.1155      10.9262
       3107.1456      0.00000      0.00000      75.7612      10.1481
       3112.8387      0.00000      0.00000      22.7815      8.26134
       3118.5319      0.00000      0.00000      81.5193      11.0553
       3124.2251      0.00000      0.00000      78.7019      10.3265
       3129.9183      0.00000      0.00000      97.9853      11.6256
       3135.6115      0.00000      0.00000      78.1841      11.5016
       3141.3047      0.00000      0.00000      111.309      12.3749
       3146.9979      0.00000      0.00000      92.4196      11.8818
       3152.6911      0.00000      0.00000      86.1868      11.9337
       3158.3843      0.00000      0.00000      101.120      11.8548
       3164.0774      0.00000      0.00000      136.677      13.1436
       3169.7706      0.00000      0.00000      155.349      13.4683
       3175.4638      0.00000      0.00000      114.521      12.9885
       3181.1570      0.00000      0.00000      107.039      12.4716
       3186.8502      0.00000      0.00000      120.341      12.7271
       3192.5434      0.00000      0.00000      137.657      13.3310
       3198.2366      0.00000      0.00000      136.235      13.8387
       3203.9298      0.00000      0.00000      133.163      14.0638
       3209.6230      0.00000      0.00000      148.137      14.1361
       3215.3161      0.00000      0.00000      125.932      13.7383
       3221.0093      0.00000      0.00000      122.481      13.5208
       3226.7025      0.00000      0.00000      157.619      14.4858
       3232.3957      0.00000      0.00000      144.803      14.5908
       3238.0889      0.00000      0.00000      141.094      14.1857
       3243.7821  2.17127e-14  1.84617e-15      174.309      14.8210
       3249.4753  2.56846e-14  1.94203e-15      212.440      16.0628
       3255.1685  2.68222e-14  1.98571e-15      227.515      16.8434
       3260.8617  2.42397e-14  1.92732e-15      210.730      16.7553
       3266.5549  2.91199e-14  2.00542e-15      259.420      17.8656
       3272.2480  3.43921e-14  2.09402e-15      314.119      19.1256
       3277.9412  3.89465e-14  2.15229e-15      364.904      20.1656
       3283.6344  4.25012e-14  2.26446e-15      408.785      21.7800
       3289.3276  3.99546e-14  2.19294e-15      394.845      21.6714
       3295.0208  3.63087e-14  2.04299e-15      368.926      20.7584
       3300.7140  3.48722e-14  1.96461e-15      364.273      20.5222
       3306.4072  2.83856e-14  1.73909e-15      304.198      18.6372
       3312.1004  2.18841e-14  1.53828e-15      240.382      16.8970
       3317.7936  2.45671e-14  1.63033e-15      276.314      18.3368
       3323.4867  1.88753e-14  1.49322e-15      217.115      17.1759
       3329.1799  2.14252e-14  1.48744e-15      251.763      17.4786
       3334.8731  2.14677e-14  1.43663e-15      257.674      17.2437
       3340.5663  2.19621e-14  1.45087e-15      269.390      17.7965
       3346.2595  2.58490e-14  1.51204e-15      324.225      18.9657
       3351.9527  2.24438e-14  1.46706e-15      287.706      18.8062
       3357.6459  2.01153e-14  1.38492e-15      263.000      18.1072
       3363.3391  2.30364e-14  1.42289e-15      306.918      18.9574
       3369.0323  2.54547e-14  1.50261e-15      345.449      20.3922
       3374.7254  1.98290e-14  1.36575e-15      274.136      18.8814
       3380.4186  2.52174e-14  1.44612e-15      355.172      20.3678
       3386.1118  3.25319e-14  1.60998e-15      466.762      23.0997
       3391.8050  3.42411e-14  1.60404e-15      500.431      23.4429
       3397.4982  3.70291e-14  1.67516e-15      551.091      24.9309
       3403.1914  3.90046e-14  1.69260e-15      590.273      25.6148
       3408.8846  3.83352e-14  1.68010e-15      589.015      25.8145
       3414.5778  3.77247e-14  1.64800e-15      587.850      25.6801
       3420.2710  3.49521e-14  1.57671e-15      551.857      24.8945
       3425.9641  3.97447e-14  1.64099e-15      635.453      26.2368
       3431.6573  3.76698e-14  1.60020e-15      610.127      25.9180
       3437.3505  3.85113e-14  1.60057e-15      632.433      26.2846
       3443.0437  3.77900e-14  1.58360e-15      630.001      26.4002
       3448.7369  4.05894e-14  1.63351e-15      687.737      27.6779
       3454.4301  3.95414e-14  1.57644e-15      680.943      27.1479
       3460.1233  3.91142e-14  1.55277e-15      684.022      27.1545
       3465.8165  3.62889e-14  1.50633e-15      643.948      26.7299
       3471.5097  3.49517e-14  1.47100e-15      628.880      26.4675
       3477.2029  3.61745e-14  1.50166e-15      659.612      27.3815
       3482.8960  3.78640e-14  1.49486e-15      699.397      27.6121
       3488.5892  3.83077e-14  1.50444e-15      716.419      28.1355
       3494.2824  4.28086e-14  1.55743e-15      810.602      29.4907
       3499.9756  4.51077e-14  1.58945e-15      865.230      30.4880
       3505.6688  4.86582e-14  1.63217e-15      945.338      31.7100
       3511.3620  5.48747e-14  1.72060e-15      1079.94      33.8617
       3517.0552  5.28932e-14  1.67655e-15      1054.49      33.4240
       3522.7484  5.22902e-14  1.65758e-15      1056.22      33.4819
       3528.4416  5.17352e-14  1.63748e-15      1058.88      33.5149
       3534.1347  5.10191e-14  1.61870e-15      1058.21      33.5741
       3539.8279  4.75607e-14  1.56065e-15      1000.04      32.8150
       3545.5211  4.53984e-14  1.50954e-15      968.273      32.1961
       3551.2143  4.15471e-14  1.43749e-15      899.099      31.1080
       3556.9075  3.80699e-14  1.37627e-15      835.832      30.2163
       3562.6007  3.87512e-14  1.37515e-15      862.913      30.6218
       3568.2939  3.92171e-14  1.37401e-15      885.626      31.0289
       3573.9871  3.92777e-14  1.35714e-15      898.891      31.0588
       3579.6803  4.26557e-14  1.39984e-15      989.109      32.4597
       3585.3734  4.47917e-14  1.42432e-15      1052.87      33.4800
       3591.0666  4.68979e-14  1.44282e-15      1117.63      34.3841
       3596.7598  4.59641e-14  1.42502e-15      1110.52      34.4291
       3602.4530  4.46282e-14  1.39176e-15      1093.31      34.0955
       3608.1462  4.50962e-14  1.38293e-15      1120.85      34.3723
       3613.8394  4.42380e-14  1.36811e-15      1116.05      34.5149
       3619.5326  4.58492e-14  1.38513e-15      1174.44      35.4808
       3625.2258  4.83519e-14  1.40029e-15      1257.79      36.4260
       3630.9190  4.75323e-14  1.38175e-15      1255.89      36.5085
       3636.6121  4.90005e-14  1.39174e-15      1316.00      37.3776
       3642.3053  5.12889e-14  1.40233e-15      1404.08      38.3898
       3647.9985  5.05823e-14  1.39183e-15      1412.83      38.8755
       3653.6917  4.91947e-14  1.36257e-15      1403.07      38.8616
       3659.3849  4.88153e-14  1.33233e-15      1422.44      38.8232
       3665.0781  4.71659e-14  1.28824e-15      1404.49      38.3607
       3670.7713  4.54211e-14  1.25343e-15      1381.87      38.1339
       3676.4645  4.84149e-14  1.27679e-15      1504.18      39.6678
       3682.1577  5.04716e-14  1.28545e-15      1600.56      40.7645
       3687.8508  5.02340e-14  1.27508e-15      1625.54      41.2609
       3693.5440  4.96345e-14  1.25463e-15      1638.80      41.4245
       3699.2372  4.77585e-14  1.21814e-15      1609.34      41.0481
       3704.9304  4.76412e-14  1.20970e-15      1638.99      41.6169
       3710.6236  4.92291e-14  1.21649e-15      1728.61      42.7153
       3716.3168  4.87493e-14  1.19878e-15      1748.22      42.9900
       3722.0100  4.50919e-14  1.14416e-15      1651.71      41.9105
       3727.7032  4.38830e-14  1.11367e-15      1641.21      41.6509
       3733.3964  4.47217e-14  1.10874e-15      1706.64      42.3107
       3739.0896  4.33181e-14  1.08250e-15      1685.88      42.1294
       3744.7827  4.12027e-14  1.04908e-15      1634.95      41.6281
       3750.4759  4.42390e-14  1.07337e-15      1789.39      43.4158
       3756.1691  5.20714e-14  1.14429e-15      2145.93      47.1576
       3761.8623  5.88963e-14  1.20434e-15      2471.32      50.5347
       3767.5555  6.51674e-14  1.25832e-15      2782.37      53.7251
       3773.2487  6.83897e-14  1.27782e-15      2969.52      55.4838
       3778.9419  6.57212e-14  1.24393e-15      2900.70      54.9025
       3784.6351  6.19107e-14  1.19863e-15      2776.83      53.7610
       3790.3283  5.78533e-14  1.15110e-15      2637.12      52.4706
       3796.0214  5.55012e-14  1.11738e-15      2571.66      51.7741
       3801.7146  5.37417e-14  1.08565e-15      2531.43      51.1380
       3807.4078  4.85961e-14  1.02786e-15      2326.68      49.2117
       3813.1010  4.62046e-14  1.00025e-15      2247.88      48.6627
       3818.7942  4.64018e-14  9.91682e-16      2292.97      49.0044
       3824.4874  4.78730e-14  1.00046e-15      2401.82      50.1936
       3830.1806  5.46087e-14  1.05822e-15      2780.55      53.8819
       3835.8738  6.30491e-14  1.12494e-15      3256.97      58.1118
       3841.5670  6.60346e-14  1.14248e-15      3459.78      59.8584
       3847.2601  6.37217e-14  1.11493e-15      3385.90      59.2426
       3852.9533  6.01872e-14  1.07499e-15      3243.94      57.9391
       3858.6465  5.69964e-14  1.03850e-15      3116.61      56.7860
       3864.3397  5.53459e-14  1.01693e-15      3068.58      56.3823
       3870.0329  5.51882e-14  1.00844e-15      3099.50      56.6363
       3875.7261  5.30001e-14  9.81720e-16      3014.91      55.8452
       3881.4193  5.33923e-14  9.78759e-16      3076.53      56.3973
       3887.1125  5.58899e-14  9.91847e-16      3263.05      57.9075
       3892.8057  5.72460e-14  9.98917e-16      3387.51      59.1105
       3898.4988  6.01146e-14  1.01696e-15      3605.93      61.0018
       3904.1920  6.29740e-14  1.03051e-15      3828.43      62.6485
       3909.8852  6.47506e-14  1.04148e-15      3988.26      64.1492
       3915.5784  6.55014e-14  1.04219e-15      4086.80      65.0247
       3921.2716  6.76647e-14  1.04831e-15      4276.16      66.2490
       3926.9648  7.25737e-14  1.07894e-15      4644.69      69.0515
       3932.6580  7.64389e-14  1.10124e-15      4952.84      71.3548
       3938.3512  7.64073e-14  1.09228e-15      5011.59      71.6433
       3944.0444  7.07084e-14  1.04770e-15      4695.44      69.5730
       3949.7376  6.27162e-14  9.81845e-16      4217.61      66.0281
       3955.4307  5.89765e-14  9.46219e-16      4016.96      64.4482
       3961.1239  6.57019e-14  9.88084e-16      4532.01      68.1564
       3966.8171  7.60754e-14  1.05277e-15      5312.57      73.5182
       3972.5103  8.37307e-14  1.09613e-15      5916.51      77.4538
       3978.2035  8.45760e-14  1.09980e-15      6044.14      78.5960
       3983.8967  7.67350e-14  1.04620e-15      5544.79      75.5971
       3989.5899  6.79337e-14  9.79520e-16      4963.30      71.5646
       3995.2831  6.06733e-14  9.22527e-16      4481.95      68.1472
       4000.9763  5.71321e-14  8.93936e-16      4266.26      66.7534
       4006.6694  5.59058e-14  8.80645e-16      4218.62      66.4529
       4012.3626  5.59593e-14  8.78358e-16      4266.15      66.9631
       4018.0558  5.68716e-14  8.81247e-16      4380.53      67.8780
       4023.7490  5.64698e-14  8.71453e-16      4394.85      67.8221
       4029.4422  5.50971e-14  8.53397e-16      4332.07      67.0994
       4035.1354  5.16264e-14  8.22636e-16      4099.76      65.3272
       4040.8286  4.94207e-14  8.04361e-16      3964.37      64.5234
       4046.5218  5.16788e-14  8.19051e-16      4187.76      66.3714
       4052.2150  5.12081e-14  8.11387e-16      4192.13      66.4239
       4057.9081  4.97866e-14  7.93742e-16      4117.01      65.6372
       4063.6013  4.87287e-14  7.82775e-16      4069.20      65.3674
       4069.2945  4.82765e-14  7.76741e-16      4070.25      65.4879
       4074.9877  4.98033e-14  7.81685e-16      4239.49      66.5407
       4080.6809  5.21737e-14  7.94672e-16      4485.31      68.3170
       4086.3741  5.56145e-14  8.17497e-16      4830.20      71.0009
       4092.0673  6.18496e-14  8.56344e-16      5428.17      75.1562
       4097.7605  7.01819e-14  9.04409e-16      6224.08      80.2075
       4103.4537  7.88238e-14  9.50378e-16      7061.58      85.1414
       4109.1468  8.28018e-14  9.70610e-16      7490.43      87.8035
       4114.8400  8.23147e-14  9.63300e-16      7517.59      87.9758
       4120.5332  7.84369e-14  9.38200e-16      7232.73      86.5123
       4126.2264  7.17643e-14  8.94109e-16      6682.25      83.2539
       4131.9196  6.49880e-14  8.46758e-16      6109.32      79.6010
       4137.6128  5.92914e-14  8.04415e-16      5624.11      76.3031
       4143.3060  5.54761e-14  7.76501e-16      5307.76      74.2929
       4148.9992  5.58192e-14  7.76789e-16      5385.80      74.9496
       4154.6924  6.02156e-14  7.99493e-16      5858.61      77.7858
       4160.3855  6.57825e-14  8.32155e-16      6452.33      81.6226
       4166.0787  7.62814e-14  8.92755e-16      7540.62      88.2514
       4171.7719  8.54063e-14  9.39831e-16      8511.75      93.6653
       4177.4651  8.88941e-14  9.51837e-16      8938.37      95.7080
       4183.1583  8.33997e-14  9.18505e-16      8465.03      93.2278
       4188.8515  7.42397e-14  8.64226e-16      7606.83      88.5513
       4194.5447  6.54707e-14  8.09303e-16      6770.57      83.6931
       4200.2379  6.08842e-14  7.79573e-16      6353.26      81.3484
       4205.9311  6.00682e-14  7.69730e-16      6322.64      81.0200
       4211.6243  6.09391e-14  7.72173e-16      6468.21      81.9602
       4217.3174  6.45875e-14  7.89668e-16      6912.80      84.5182
       4223.0106  7.14606e-14  8.25778e-16      7712.45      89.1229
       4228.7038  7.85147e-14  8.61705e-16      8545.36      93.7860
       4234.3970  8.09073e-14  8.71037e-16      8878.96      95.5896
       4240.0902  8.34552e-14  8.80432e-16      9231.56      97.3907
       4245.7834  8.54009e-14  8.85115e-16      9523.11      98.6998
       4251.4766  8.45569e-14  8.78049e-16      9508.71      98.7395
       4257.1698  8.14185e-14  8.58776e-16      9235.94      97.4178
       4262.8630  7.86045e-14  8.40510e-16      8994.10      96.1730
       4268.5561  7.36896e-14  8.09778e-16      8506.11      93.4741
       4274.2493  7.12057e-14  7.94488e-16      8291.76      92.5165
       4279.9425  7.04710e-14  7.86922e-16      8278.18      92.4391
       4285.6357  7.19579e-14  7.91332e-16      8526.47      93.7669
       4291.3289  7.72976e-14  8.14543e-16      9235.36      97.3200
       4297.0221  8.04096e-14  8.28416e-16      9678.96      99.7170
       4302.7153  8.17487e-14  8.31207e-16      9905.82      100.721
       4308.4085  8.25928e-14  8.33475e-16      10071.3      101.633
       4314.1017  8.47493e-14  8.41205e-16      10399.8      103.227
       4319.7948  8.47647e-14  8.39353e-16      10469.2      103.668
       4325.4880  8.84273e-14  8.53295e-16      10994.6      106.094
       4331.1812  9.95733e-14  9.01633e-16      12464.4      112.865
       4336.8744  1.14263e-13  9.60889e-16      14399.4      121.092
       4342.5676  1.27443e-13  1.01233e-15      16169.6      128.441
       4348.2608  1.32486e-13  1.02823e-15      16924.5      131.352
       4353.9540  1.21693e-13  9.82734e-16      15655.1      126.424
       4359.6472  1.08486e-13  9.25328e-16      14057.4      119.902
       4365.3404  9.74344e-14  8.73620e-16      12712.8      113.986
       4371.0335  9.07483e-14  8.40823e-16      11916.7      110.413
       4376.7267  8.54850e-14  8.16112e-16      11293.2      107.815
       4382.4199  8.41246e-14  8.07322e-16      11178.9      107.281
       4388.1131  8.79330e-14  8.20327e-16      11756.0      109.672
       4393.8063  9.25079e-14  8.38398e-16      12446.0      112.798
       4399.4995  9.44873e-14  8.45079e-16      12795.1      114.437
       4405.1927  9.31703e-14  8.37949e-16      12701.1      114.230
       4410.8859  9.14665e-14  8.27349e-16      12553.7      113.553
       4416.5791  8.83783e-14  8.10239e-16      12214.6      111.982
       4422.2723  7.93078e-14  7.65667e-16      11040.0      106.584
       4427.9654  6.92728e-14  7.15031e-16      9713.21      100.259
       4433.6586  6.37280e-14  6.83383e-16      8998.18      96.4914
       4439.3518  6.45794e-14  6.85509e-16      9178.68      97.4316
       4445.0450  6.91071e-14  7.06533e-16      9885.66      101.068
       4450.7382  7.17614e-14  7.17172e-16      10330.4      103.240
       4456.4314  7.65302e-14  7.36693e-16      11085.9      106.715
       4462.1246  8.38814e-14  7.67835e-16      12227.1      111.925
       4467.8178  8.69682e-14  7.80884e-16      12755.2      114.529
       4473.5110  9.00660e-14  7.91094e-16      13288.8      116.722
       4479.2041  9.80379e-14  8.22350e-16      14548.6      122.035
       4484.8973  1.01320e-13  8.32896e-16      15123.2      124.320
       4490.5905  1.07692e-13  8.56047e-16      16169.2      128.530
       4496.2837  1.13343e-13  8.75604e-16      17116.9      132.233
       4501.9769  1.19493e-13  8.96596e-16      18146.1      136.156
       4507.6701  1.22503e-13  9.04460e-16      18700.8      138.071
       4513.3633  1.24151e-13  9.08504e-16      19047.3      139.383
       4519.0565  1.24808e-13  9.08346e-16      19243.0      140.049
       4524.7497  1.24360e-13  9.05175e-16      19265.4      140.227
       4530.4428  1.22446e-13  8.95866e-16      19056.5      139.425
       4536.1360  1.19060e-13  8.81374e-16      18612.3      137.783
       4541.8292  1.18035e-13  8.75897e-16      18534.4      137.537
       4547.5224  1.19256e-13  8.78380e-16      18807.9      138.530
       4553.2156  1.21744e-13  8.85398e-16      19283.3      140.241
       4558.9088  1.25993e-13  8.98612e-16      20042.7      142.949
       4564.6020  1.29368e-13  9.08166e-16      20666.6      145.081
       4570.2952  1.31347e-13  9.13171e-16      21066.7      146.463
       4575.9884  1.34383e-13  9.21705e-16      21638.2      148.412
       4581.6815  1.40419e-13  9.39662e-16      22696.2      151.880
       4587.3747  1.39041e-13  9.33542e-16      22558.7      151.462
       4593.0679  1.26715e-13  8.89934e-16      20636.1      144.929
       4598.7611  1.11535e-13  8.34590e-16      18232.0      136.426
       4604.4543  1.02455e-13  7.99594e-16      16807.6      131.172
       4610.1475  1.02088e-13  7.96902e-16      16804.4      131.175
       4615.8407  1.09481e-13  8.23208e-16      18080.6      135.951
       4621.5339  1.16635e-13  8.47395e-16      19324.7      140.401
       4627.2271  1.17769e-13  8.49765e-16      19575.4      141.248
       4632.9202  1.13291e-13  8.32369e-16      18892.9      138.809
       4638.6134  1.05942e-13  8.04296e-16      17726.8      134.580
       4644.3066  9.66525e-14  7.67477e-16      16231.2      128.885
       4649.9998  9.13997e-14  7.45154e-16      15408.5      125.620
       4655.6930  9.04645e-14  7.40259e-16      15313.1      125.305
       4661.3862  8.81887e-14  7.29910e-16      14990.7      124.073
       4667.0794  8.26165e-14  7.05438e-16      14107.5      120.460
       4672.7726  7.51176e-14  6.71490e-16      12893.1      115.254
       4678.4658  6.65215e-14  6.30714e-16      11483.2      108.877
       4684.1590  5.93865e-14  5.94994e-16      10314.6      103.342
       4689.8521  5.68729e-14  5.81256e-16      9940.90      101.599
       4695.5453  5.71780e-14  5.80889e-16      10058.8      102.190
       4701.2385  5.80046e-14  5.82903e-16      10270.8      103.214
       4706.9317  6.00155e-14  5.89940e-16      10697.4      105.153
       4712.6249  6.24058e-14  5.99437e-16      11198.3      107.565
       4718.3181  6.53856e-14  6.11413e-16      11812.3      110.455
       4724.0113  6.80789e-14  6.21044e-16      12381.8      112.952
       4729.7045  6.88522e-14  6.22239e-16      12606.9      113.933
       4735.3977  6.65830e-14  6.10736e-16      12274.2      112.586
       4741.0908  6.29645e-14  5.92088e-16      11688.0      109.908
       4746.7840  5.99479e-14  5.75911e-16      11208.4      107.677
       4752.4772  5.92389e-14  5.70689e-16      11157.5      107.488
       4758.1704  6.13429e-14  5.78337e-16      11638.5      109.727
       4763.8636  6.23665e-14  5.80659e-16      11918.1      110.963
       4769.5568  6.24018e-14  5.79081e-16      12009.3      111.445
       4775.2500  6.29542e-14  5.79086e-16      12200.2      112.224
       4780.9432  6.26558e-14  5.76111e-16      12223.9      112.397
       4786.6364  6.32328e-14  5.76822e-16      12414.9      113.252
       4792.3295  6.61730e-14  5.87873e-16      13067.9      116.093
       4798.0227  7.04071e-14  6.04027e-16      13977.5      119.914
       4803.7159  7.47144e-14  6.20244e-16      14905.9      123.742
       4809.4091  7.86325e-14  6.34546e-16      15765.4      127.223
       4815.1023  8.22653e-14  6.47266e-16      16578.1      130.437
       4820.7955  8.97079e-14  6.73298e-16      18168.8      136.365
       4826.4887  1.04496e-13  7.23640e-16      21267.9      147.281
       4832.1819  1.21363e-13  7.76792e-16      24819.8      158.860
       4837.8751  1.41850e-13  8.36740e-16      29148.4      171.939
       4843.5682  1.66633e-13  9.03744e-16      34404.3      186.594
       4849.2614  2.02670e-13  9.93116e-16      42044.5      206.025
       4854.9546  2.38120e-13  1.07364e-15      49634.5      223.794
       4860.6478  2.58074e-13  1.11497e-15      54041.0      233.475
       4866.3410  2.58836e-13  1.11403e-15      54435.8      234.292
       4872.0342  2.42171e-13  1.07558e-15      51137.9      227.124
       4877.7274  1.98743e-13  9.73479e-16      42130.3      206.362
       4883.4206  1.54264e-13  8.57041e-16      32824.3      182.361
       4889.1138  1.23772e-13  7.67605e-16      26431.7      163.924
       4894.8070  1.09402e-13  7.21220e-16      23444.0      154.552
       4900.5001  1.04318e-13  7.03553e-16      22430.8      151.280
       4906.1933  1.12114e-13  7.27549e-16      24187.0      156.959
       4911.8865  1.31346e-13  7.85352e-16      28430.2      169.991
       4917.5797  1.51009e-13  8.39475e-16      32794.1      182.305
       4923.2729  1.60104e-13  8.63456e-16      34882.0      188.122
       4928.9661  1.57867e-13  8.55540e-16      34498.8      186.962
       4934.6593  1.43965e-13  8.16526e-16      31548.2      178.932
       4940.3525  1.22212e-13  7.52376e-16      26855.1      165.328
       4946.0457  1.01280e-13  6.84820e-16      22316.5      150.896
       4951.7388  8.83456e-14  6.39714e-16      19517.2      141.325
       4957.4320  7.70658e-14  5.97815e-16      17066.6      132.389
       4963.1252  6.63095e-14  5.54699e-16      14716.6      123.109
       4968.8184  6.15796e-14  5.35050e-16      13693.4      118.979
       4974.5116  6.39150e-14  5.44322e-16      14237.6      121.252
       4980.2048  7.45238e-14  5.85616e-16      16629.0      130.672
       4985.8980  9.29540e-14  6.51781e-16      20775.9      145.678
       4991.5912  1.06528e-13  6.96433e-16      23850.3      155.923
       4997.2844  1.15955e-13  7.25791e-16      26004.8      162.771
       5002.9775  1.31101e-13  7.69447e-16      29446.0      172.822
       5008.6707  1.56383e-13  8.39527e-16      35171.9      188.817
       5014.3639  1.76444e-13  8.90506e-16      39737.7      200.554
       5020.0571  1.88025e-13  9.18654e-16      42403.4      207.175
       5025.7503  1.87101e-13  9.15600e-16      42252.5      206.767
       5031.4435  1.74558e-13  8.83512e-16      39473.7      199.793
       5037.1367  1.51900e-13  8.24548e-16      34397.0      186.714
       5042.8299  1.36025e-13  7.80508e-16      30844.3      176.984
       5048.5231  1.21730e-13  7.38280e-16      27640.5      167.637
       5054.2162  1.09573e-13  7.00899e-16      24914.3      159.367
       5059.9094  1.00089e-13  6.69953e-16      22789.7      152.543
       5065.6026  9.44277e-14  6.50698e-16      21531.1      148.370
       5071.2958  9.06892e-14  6.37375e-16      20710.5      145.556
       5076.9890  8.68771e-14  6.23688e-16      19874.4      142.678
       5082.6822  8.46041e-14  6.15043e-16      19393.1      140.981
       5088.3754  8.35053e-14  6.10481e-16      19183.9      140.247
       5094.0686  8.27319e-14  6.07034e-16      19051.4      139.787
       5099.7618  8.25658e-14  6.05301e-16      19059.1      139.725
       5105.4549  8.18359e-14  6.01808e-16      18937.0      139.260
       5111.1481  8.46655e-14  6.11360e-16      19639.9      141.818
       5116.8413  9.12523e-14  6.33363e-16      21236.8      147.401
       5122.5345  9.93415e-14  6.58979e-16      23204.1      153.924
       5128.2277  1.09042e-13  6.88068e-16      25563.4      161.308
       5133.9209  1.21618e-13  7.25139e-16      28616.2      170.622
       5139.6141  1.30456e-13  7.49677e-16      30808.4      177.044
       5145.3073  1.36269e-13  7.64504e-16      32299.4      181.209
       5151.0005  1.46570e-13  7.90344e-16      34868.3      188.018
       5156.6937  1.67214e-13  8.41531e-16      39924.7      200.928
       5162.3868  1.93828e-13  9.03764e-16      46448.7      216.576
       5168.0800  2.13584e-13  9.46935e-16      51368.6      227.745
       5173.7732  2.23713e-13  9.67278e-16      54000.2      233.483
       5179.4664  2.28195e-13  9.75282e-16      55282.3      236.271
       5185.1596  2.29642e-13  9.76729e-16      55835.2      237.482
       5190.8528  2.24404e-13  9.63892e-16      54760.3      235.215
       5196.5460  2.10106e-13  9.31235e-16      51458.1      228.073
       5202.2392  1.90284e-13  8.84745e-16      46772.3      217.472
       5207.9324  1.70128e-13  8.35383e-16      41969.5      206.083
       5213.6255  1.56132e-13  7.99700e-16      38656.4      197.996
       5219.3187  1.58576e-13  8.04568e-16      39404.0      199.925
       5225.0119  1.71086e-13  8.33683e-16      42667.3      207.912
       5230.7051  1.80875e-13  8.55350e-16      45272.6      214.092
       5236.3983  1.85524e-13  8.64862e-16      46569.2      217.092
       5242.0915  1.85218e-13  8.63249e-16      46607.5      217.224
       5247.7847  1.78437e-13  8.46409e-16      45012.1      213.513
       5253.4779  1.75127e-13  8.37607e-16      44285.6      211.812
       5259.1711  1.82098e-13  8.52847e-16      46160.2      216.190
       5264.8642  1.97095e-13  8.85590e-16      50085.1      225.043
       5270.5574  2.12121e-13  9.17274e-16      54039.8      233.684
       5276.2506  2.18502e-13  9.29765e-16      55805.7      237.463
       5281.9438  2.12226e-13  9.15212e-16      54339.1      234.334
       5287.6370  1.92622e-13  8.71004e-16      49445.4      223.583
       5293.3302  1.78417e-13  8.38106e-16      45907.9      215.650
       5299.0234  1.79969e-13  8.40636e-16      46406.8      216.767
       5304.7166  1.98374e-13  8.81106e-16      51251.6      227.642
       5310.4098  2.17044e-13  9.20790e-16      56181.5      238.345
       5316.1029  2.21471e-13  9.29181e-16      57436.1      240.972
       5321.7961  2.20133e-13  9.25189e-16      57196.8      240.390
       5327.4893  2.13982e-13  9.11402e-16      55703.0      237.252
       5333.1825  1.98190e-13  8.76739e-16      51688.5      228.656
       5338.8757  1.83117e-13  8.42366e-16      47844.3      220.092
       5344.5689  1.71406e-13  8.14555e-16      44865.5      213.210
       5350.2621  1.68433e-13  8.07274e-16      44165.5      211.679
       5355.9553  1.65853e-13  8.00168e-16      43564.0      210.177
       5361.6485  1.61624e-13  7.89340e-16      42525.5      207.687
       5367.3417  1.54582e-13  7.71285e-16      40741.1      203.277
       5373.0348  1.43178e-13  7.42178e-16      37798.5      195.932
       5378.7280  1.31940e-13  7.12312e-16      34890.1      188.363
       5384.4212  1.21344e-13  6.82844e-16      32142.4      180.876
       5390.1144  1.16909e-13  6.69914e-16      31018.2      177.741
       5395.8076  1.18548e-13  6.73644e-16      31498.2      178.988
       5401.5008  1.24886e-13  6.91058e-16      33222.9      183.839
       5407.1940  1.33433e-13  7.13721e-16      35535.0      190.073
       5412.8872  1.41663e-13  7.34680e-16      37769.7      195.877
       5418.5804  1.49137e-13  7.53153e-16      39810.6      201.047
       5424.2735  1.47888e-13  7.49589e-16      39526.6      200.345
       5429.9667  1.41538e-13  7.33273e-16      37871.8      196.204
       5435.6599  1.29690e-13  7.01462e-16      34735.4      187.876
       5441.3531  1.19553e-13  6.73962e-16      32046.0      180.655
       5447.0463  1.10101e-13  6.46919e-16      29536.4      173.547
       5452.7395  1.04896e-13  6.31801e-16      28162.6      169.626
       5458.4327  1.03113e-13  6.26434e-16      27707.3      168.328
       5464.1259  1.05902e-13  6.34017e-16      28481.7      170.515
       5469.8191  1.09782e-13  6.45128e-16      29551.4      173.657
       5475.5122  1.11608e-13  6.50027e-16      30071.2      175.140
       5481.2054  1.11900e-13  6.50594e-16      30178.8      175.462
       5486.8986  1.12889e-13  6.53121e-16      30476.0      176.319
       5492.5918  1.15165e-13  6.59195e-16      31121.6      178.138
       5498.2850  1.21192e-13  6.75348e-16      32784.2      182.692
       5503.9782  1.25442e-13  6.86705e-16      33968.2      185.952
       5509.6714  1.29249e-13  6.96348e-16      35038.3      188.773
       5515.3646  1.39335e-13  7.22258e-16      37822.7      196.059
       5521.0578  1.55472e-13  7.61732e-16      42268.7      207.094
       5526.7509  1.67378e-13  7.89278e-16      45583.2      214.949
       5532.4441  1.70713e-13  7.96484e-16      46576.5      217.309
       5538.1373  1.62138e-13  7.75651e-16      44325.1      212.046
       5543.8305  1.49816e-13  7.45185e-16      41045.6      204.161
       5549.5237  1.34481e-13  7.05867e-16      36930.8      193.843
       5555.2169  1.27404e-13  6.87024e-16      35074.6      189.139
       5560.9101  1.26853e-13  6.85958e-16      34989.3      189.205
       5566.6033  1.26815e-13  6.87256e-16      35041.0      189.900
       5572.2965  1.25529e-13  6.86565e-16      34748.4      190.052
       5577.9896  1.23433e-13  6.81753e-16      34240.3      189.119
       5583.6828  1.19092e-13  6.66223e-16      33106.1      185.202
       5589.3760  1.13563e-13  6.46932e-16      31636.3      180.221
       5595.0692  1.06159e-13  6.23902e-16      29636.6      174.175
       5600.7624  1.02665e-13  6.12645e-16      28721.3      171.393
       5606.4556  1.00635e-13  6.06001e-16      28212.8      169.890
       5612.1488  1.00412e-13  6.04517e-16      28209.4      169.831
       5617.8420  9.88954e-14  5.99423e-16      27842.0      168.755
       5623.5352  9.68012e-14  5.92828e-16      27305.6      167.224
       5629.2284  9.54076e-14  5.87997e-16      26964.3      166.181
       5634.9215  9.50072e-14  5.86061e-16      26902.5      165.950
       5640.6147  9.75690e-14  5.93163e-16      27679.5      168.275
       5646.3079  1.05225e-13  6.14994e-16      29903.7      174.774
       5652.0011  1.13288e-13  6.37046e-16      32250.8      181.354
       5657.6943  1.19659e-13  6.53868e-16      34123.1      186.464
       5663.3875  1.24069e-13  6.65119e-16      35442.1      190.001
       5669.0807  1.24801e-13  6.66653e-16      35712.3      190.765
       5674.7739  1.24008e-13  6.64178e-16      35546.4      190.384
       5680.4671  1.22250e-13  6.59275e-16      35102.7      189.304
       5686.1602  1.19331e-13  6.51185e-16      34323.9      187.304
       5691.8534  1.16486e-13  6.42588e-16      33563.0      185.148
       5697.5466  1.12685e-13  6.31527e-16      32513.5      182.218
       5703.2398  1.09940e-13  6.23504e-16      31765.5      180.152
       5708.9330  1.08165e-13  6.18133e-16      31295.9      178.848
       5714.6262  1.09362e-13  6.21067e-16      31686.3      179.947
       5720.3194  1.12119e-13  6.28047e-16      32530.6      182.224
       5726.0126  1.13298e-13  6.30697e-16      32918.8      183.249
       5731.7058  1.15398e-13  6.36117e-16      33573.9      185.071
       5737.3989  1.17150e-13  6.40503e-16      34129.2      186.597
       5743.0921  1.17291e-13  6.40266e-16      34221.4      186.807
       5748.7853  1.17510e-13  6.40449e-16      34337.2      187.144
       5754.4785  1.17436e-13  6.40052e-16      34367.3      187.309
       5760.1717  1.16145e-13  6.36063e-16      34040.0      186.418
       5765.8649  1.13367e-13  6.27880e-16      33278.4      184.312
       5771.5581  1.09985e-13  6.18100e-16      32336.9      181.728
       5777.2513  1.07815e-13  6.11521e-16      31749.1      180.079
       5782.9445  1.08011e-13  6.11536e-16      31856.3      180.365
       5788.6376  1.09929e-13  6.16484e-16      32472.8      182.109
       5794.3308  1.12557e-13  6.23275e-16      33300.9      184.402
       5800.0240  1.15610e-13  6.31135e-16      34256.7      187.014
       5805.7172  1.16599e-13  6.33361e-16      34601.6      187.954
       5811.4104  1.17330e-13  6.35174e-16      34868.8      188.765
       5817.1036  1.17270e-13  6.34516e-16      34895.9      188.812
       5822.7968  1.13761e-13  6.24430e-16      33886.0      185.999
       5828.4900  1.09225e-13  6.12005e-16      32557.0      182.422
       5834.1832  1.02494e-13  5.93031e-16      30561.3      176.827
       5839.8764  9.67103e-14  5.76502e-16      28839.8      171.917
       5845.5695  9.61084e-14  5.74535e-16      28679.3      171.445
       5851.2627  1.04413e-13  5.98193e-16      31179.4      178.629
       5856.9559  1.13024e-13  6.22153e-16      33773.3      185.908
       5862.6491  1.13761e-13  6.24255e-16      34015.8      186.659
       5868.3423  1.08574e-13  6.10068e-16      32482.2      182.515
       5874.0355  1.11245e-13  6.17606e-16      33294.4      184.842
       5879.7287  1.28171e-13  6.62264e-16      38369.8      198.259
       5885.4219  1.47348e-13  7.10946e-16      44113.5      212.845
       5891.1151  1.66911e-13  7.56533e-16      49966.6      226.476
       5896.8082  1.91374e-13  8.08014e-16      57285.4      241.869
       5902.5014  2.08383e-13  8.41328e-16      62371.0      251.817
       5908.1946  2.02122e-13  8.28090e-16      60491.7      247.834
       5913.8878  1.82600e-13  7.87375e-16      54644.7      235.629
       5919.5810  1.63980e-13  7.46661e-16      49068.8      223.427
       5925.2742  1.52252e-13  7.20198e-16      45555.1      215.489
       5930.9674  1.44111e-13  7.01175e-16      43115.6      209.781
       5936.6606  1.39547e-13  6.90057e-16      41746.8      206.438
       5942.3538  1.38022e-13  6.86188e-16      41291.7      205.285
       5948.0469  1.37562e-13  6.85001e-16      41165.5      204.986
       5953.7401  1.37615e-13  6.84940e-16      41204.7      205.085
       5959.4333  1.36888e-13  6.82790e-16      41019.8      204.604
       5965.1265  1.36642e-13  6.81878e-16      40976.3      204.482
       5970.8197  1.41826e-13  6.94210e-16      42558.0      208.313
       5976.5129  1.51423e-13  7.16805e-16      45466.9      215.230
       5982.2061  1.58904e-13  7.33660e-16      47744.0      220.434
       5987.8993  1.61620e-13  7.39469e-16      48596.8      222.348
       5993.5925  1.60799e-13  7.37152e-16      48391.1      221.840
       5999.2856  1.52730e-13  7.18584e-16      46010.8      216.477
       6004.9788  1.45816e-13  7.01861e-16      43982.3      211.701
       6010.6720  1.39889e-13  6.86852e-16      42252.1      207.457
       6016.3652  1.36567e-13  6.78338e-16      41303.5      205.157
       6022.0584  1.34181e-13  6.72052e-16      40635.6      203.526
       6027.7516  1.30939e-13  6.63526e-16      39706.7      201.212
       6033.4448  1.29360e-13  6.59165e-16      39277.6      200.143
       6039.1380  1.29521e-13  6.59090e-16      39371.0      200.346
       6044.8312  1.29598e-13  6.59075e-16      39438.0      200.564
       6050.5243  1.29350e-13  6.58056e-16      39406.4      200.477
       6056.2175  1.30920e-13  6.61344e-16      39935.2      201.733
       6061.9107  1.33517e-13  6.67398e-16      40795.5      203.920
       6067.6039  1.37477e-13  6.76422e-16      42069.0      206.990
       6073.2971  1.46154e-13  6.96406e-16      44780.4      213.373
       6078.9903  1.48818e-13  7.02520e-16      45648.5      215.491
       6084.6835  1.49972e-13  7.04866e-16      46058.2      216.472
       6090.3767  1.47463e-13  6.98428e-16      45346.9      214.777
       6096.0699  1.39916e-13  6.80212e-16      43082.0      209.447
       6101.7631  1.34904e-13  6.67698e-16      41587.8      205.835
       6107.4562  1.35684e-13  6.68959e-16      41870.5      206.433
       6113.1494  1.42365e-13  6.84912e-16      43972.2      211.549
       6118.8426  1.57362e-13  7.19041e-16      48646.4      222.282
       6124.5358  1.71924e-13  7.50953e-16      53192.9      232.343
       6130.2290  1.90223e-13  7.89152e-16      58905.5      244.373
       6135.9222  2.08459e-13  8.25426e-16      64611.6      255.839
       6141.6154  2.22249e-13  8.51709e-16      68941.5      264.200
       6147.3086  2.30960e-13  8.67767e-16      71694.9      269.374
       6153.0018  2.35247e-13  8.75180e-16      73075.4      271.859
       6158.6949  2.35545e-13  8.75461e-16      73218.2      272.134
       6164.3881  2.24192e-13  8.54046e-16      69725.5      265.614
       6170.0813  2.09109e-13  8.25182e-16      65053.7      256.714
       6175.7745  1.93362e-13  7.93774e-16      60162.0      246.972
       6181.4677  1.78769e-13  7.63636e-16      55624.9      237.610
       6187.1609  1.67817e-13  7.40034e-16      52228.0      230.313
       6192.8541  1.56724e-13  7.15269e-16      48791.2      222.676
       6198.5473  1.49502e-13  6.98983e-16      46553.7      217.657
       6204.2405  1.48838e-13  6.97515e-16      46343.7      217.184
       6209.9336  1.54992e-13  7.11670e-16      48239.1      221.498
       6215.6268  1.66918e-13  7.38294e-16      51910.0      229.604
       6221.3200  1.87805e-13  7.82979e-16      58358.0      243.301
       6227.0132  2.17028e-13  8.41334e-16      67395.1      261.265
       6232.7064  2.46929e-13  8.97442e-16      76645.3      278.560
       6238.3996  2.66799e-13  9.33020e-16      82779.6      289.488
       6244.0928  2.70768e-13  9.39766e-16      83971.8      291.445
       6249.7860  2.59494e-13  9.20202e-16      80436.2      285.238
       6255.4792  2.31486e-13  8.69395e-16      71709.8      269.321
       6261.1723  1.94798e-13  7.99317e-16      60312.8      247.483
       6266.8655  1.82719e-13  7.74340e-16      56548.1      239.645
       6272.5587  1.67359e-13  7.41791e-16      51776.2      229.490
       6278.2519  1.58267e-13  7.21789e-16      48953.1      223.254
       6283.9451  1.55463e-13  7.15995e-16      48086.8      221.467
       6289.6383  1.58273e-13  7.23326e-16      48960.4      223.755
       6295.3315  1.62067e-13  7.33022e-16      50131.3      226.742
       6301.0247  1.65903e-13  7.42069e-16      51319.3      229.546
       6306.7179  1.70828e-13  7.51678e-16      52846.2      232.534
       6312.4111  1.70426e-13  7.49250e-16      52732.6      231.830
       6318.1042  1.65539e-13  7.37871e-16      51238.3      228.388
       6323.7974  1.61721e-13  7.29261e-16      50086.6      225.860
       6329.4906  1.64944e-13  7.36073e-16      51132.8      228.184
       6335.1838  1.72984e-13  7.52873e-16      53695.7      233.698
       6340.8770  1.82527e-13  7.72421e-16      56737.1      240.101
       6346.5702  1.91133e-13  7.89745e-16      59493.2      245.821
       6352.2634  1.98217e-13  8.03863e-16      61774.5      250.524
       6357.9566  2.02360e-13  8.11886e-16      63133.2      253.295
       6363.6498  2.04516e-13  8.15786e-16      63877.9      254.800
       6369.3429  2.06090e-13  8.18064e-16      64442.3      255.800
       6375.0361  2.07088e-13  8.19191e-16      64832.1      256.461
       6380.7293  2.04257e-13  8.13130e-16      64021.8      254.865
       6386.4225  1.98054e-13  8.00484e-16      62140.5      251.156
       6392.1157  1.93434e-13  7.90805e-16      60737.3      248.308
       6397.8089  1.93636e-13  7.90850e-16      60835.4      248.464
       6403.5021  2.02601e-13  8.08480e-16      63675.2      254.096
       6409.1953  2.19447e-13  8.40744e-16      68996.2      264.338
       6414.8885  2.40023e-13  8.78576e-16      75510.0      276.395
       6420.5816  2.54885e-13  9.05141e-16      80228.5      284.905
       6426.2748  2.57574e-13  9.09572e-16      81117.4      286.451
       6431.9680  2.58379e-13  9.10772e-16      81404.9      286.948
       6437.6612  2.68411e-13  9.27872e-16      84594.9      292.437
       6443.3544  2.82065e-13  9.50822e-16      88924.4      299.758
       6449.0476  2.90454e-13  9.64776e-16      91601.2      304.264
       6454.7408  2.91978e-13  9.67342e-16      92113.1      305.176
       6460.4340  2.85885e-13  9.57335e-16      90223.7      302.130
       6466.1272  2.74010e-13  9.37665e-16      86490.7      295.972
       6471.8203  2.57462e-13  9.09165e-16      81264.2      286.964
       6477.5135  2.43857e-13  8.85070e-16      76957.3      279.314
       6483.2067  2.36826e-13  8.72321e-16      74713.5      275.199
       6488.8999  2.35970e-13  8.71138e-16      74405.3      274.685
       6494.5931  2.42924e-13  8.84251e-16      76552.8      278.654
       6500.2863  2.62980e-13  9.19741e-16      82820.9      289.656
       6505.9795  3.03596e-13  9.87020e-16      95567.6      310.700
       6511.6727  3.80442e-13  1.10248e-15      119731.      346.970
       6517.3659  4.92687e-13  1.25350e-15      155048.      394.475
       6523.0590  6.10535e-13  1.39586e-15      192133.      439.271
       6528.7522  7.13583e-13  1.50933e-15      224560.      474.976
       6534.4454  8.01965e-13  1.59993e-15      252383.      503.505
       6540.1386  8.93896e-13  1.68866e-15      281341.      531.482
       6545.8318  1.06906e-12  1.84439e-15      336529.      580.593
       6551.5250  1.35928e-12  2.07787e-15      427984.      654.241
       6557.2182  1.55439e-12  2.22481e-15      489530.      700.671
       6562.9114  1.59353e-12  2.25289e-15      501894.      709.566
       6568.6046  1.57611e-12  2.24086e-15      496277.      705.590
       6574.2978  1.51639e-12  2.19832e-15      477259.      691.886
       6579.9909  1.32531e-12  2.05429e-15      416944.      646.280
       6585.6841  1.06194e-12  1.83818e-15      334026.      578.187
       6591.3773  8.39480e-13  1.63509e-15      264086.      514.371
       6597.0705  6.73403e-13  1.46512e-15      211925.      461.085
       6602.7637  5.39826e-13  1.31221e-15      169972.      413.169
       6608.4569  4.23863e-13  1.16277e-15      133543.      366.346
       6614.1501  3.24899e-13  1.01846e-15      102437.      321.110
       6619.8433  2.59663e-13  9.11989e-16      81932.5      287.763
       6625.5365  2.25682e-13  8.51114e-16      71260.6      268.745
       6631.2296  2.07437e-13  8.16300e-16      65532.8      257.883
       6636.9228  1.98190e-13  7.98263e-16      62627.6      252.249
       6642.6160  1.95181e-13  7.92165e-16      61685.4      250.357
       6648.3092  1.91510e-13  7.84452e-16      60533.5      247.953
       6654.0024  1.89183e-13  7.79600e-16      59799.1      246.425
       6659.6956  1.88811e-13  7.79118e-16      59673.1      246.237
       6665.3888  1.88640e-13  7.78948e-16      59608.5      246.140
       6671.0820  1.88771e-13  7.79218e-16      59640.4      246.186
       6676.7752  1.87937e-13  7.77323e-16      59377.7      245.592
       6682.4683  1.87721e-13  7.76834e-16      59328.9      245.517
       6688.1615  1.86476e-13  7.73849e-16      58964.2      244.694
       6693.8547  1.83801e-13  7.68135e-16      58140.4      242.978
       6699.5479  1.82420e-13  7.65413e-16      57702.9      242.115
       6705.2411  1.84275e-13  7.69459e-16      58265.5      243.294
       6710.9343  1.83195e-13  7.67519e-16      57887.9      242.529
       6716.6275  1.83665e-13  7.68877e-16      57995.5      242.786
       6722.3207  1.80081e-13  7.61643e-16      56824.1      240.335
       6728.0139  1.75599e-13  7.52449e-16      55374.1      237.280
       6733.7070  1.70509e-13  7.41747e-16      53734.1      233.754
       6739.4002  1.67381e-13  7.35112e-16      52711.1      231.499
       6745.0934  1.67361e-13  7.35399e-16      52669.5      231.435
       6750.7866  1.69595e-13  7.40092e-16      53346.6      232.798
       6756.4798  1.69833e-13  7.40860e-16      53409.2      232.986
       6762.1730  1.68711e-13  7.38542e-16      53048.9      232.225
       6767.8662  1.68049e-13  7.37260e-16      52834.5      231.794
       6773.5594  1.70152e-13  7.41642e-16      53488.8      233.142
       6779.2526  1.71874e-13  7.45439e-16      54019.3      234.289
       6784.9458  1.72528e-13  7.46950e-16      54198.1      234.648
       6790.6389  1.72698e-13  7.47657e-16      54200.7      234.650
       6796.3321  1.76017e-13  7.55561e-16      55123.7      236.621
       6802.0253  1.76529e-13  7.58083e-16      55088.1      236.569
       6807.7185  1.78365e-13  7.63459e-16      55444.2      237.319
       6813.4117  1.83000e-13  7.74774e-16      56681.8      239.976
       6819.1049  1.85886e-13  7.82430e-16      57393.0      241.579
       6824.7981  1.84588e-13  7.81854e-16      56832.4      240.723
       6830.4913  1.84759e-13  7.84138e-16      56737.9      240.802
       6836.1845  1.84754e-13  7.84592e-16      56594.5      240.340
       6841.8776  1.82857e-13  7.80494e-16      55877.0      238.501
       6847.5708  1.81077e-13  7.77287e-16      55197.2      236.939
       6853.2640  1.77245e-13  7.70203e-16      53894.2      234.193
       6858.9572  1.72358e-13  7.61354e-16      52278.6      230.930
       6864.6504  1.61029e-13  7.38230e-16      48722.1      223.364
       6870.3436  1.49645e-13  7.11781e-16      45166.8      214.835
       6876.0368  1.51045e-13  7.15097e-16      45477.2      215.305
       6881.7300  1.60050e-13  7.36673e-16      48077.9      221.292
       6887.4232  1.64683e-13  7.48057e-16      49365.0      224.236
       6893.1163  1.62788e-13  7.44557e-16      48704.5      222.764
       6898.8095  1.68278e-13  7.57388e-16      50266.5      226.240
       6904.5027  1.74304e-13  7.71266e-16      52000.3      230.092
       6910.1959  1.79513e-13  7.83167e-16      53506.9      233.437
       6915.8891  1.81766e-13  7.88324e-16      54170.0      234.937
       6921.5823  1.84185e-13  7.93021e-16      54963.9      236.651
       6927.2755  1.84178e-13  7.92323e-16      55064.2      236.883
       6932.9687  1.82707e-13  7.87819e-16      54724.5      235.968
       6938.6619  1.80771e-13  7.83400e-16      54235.1      235.037
       6944.3550  1.77745e-13  7.76599e-16      53406.6      233.343
       6950.0482  1.80375e-13  7.82253e-16      54269.1      235.355
       6955.7414  1.86985e-13  7.94607e-16      56320.8      239.340
       6961.4346  1.92457e-13  8.05475e-16      58021.3      242.831
       6967.1278  1.97741e-13  8.16013e-16      59653.7      246.171
       6972.8210  1.95961e-13  8.12571e-16      59143.4      245.244
       6978.5142  1.97466e-13  8.15664e-16      59614.4      246.246
       6984.2074  2.03686e-13  8.27790e-16      61501.7      249.945
       6989.9006  2.12347e-13  8.44461e-16      64122.2      255.001
       6995.5937  2.19456e-13  8.58108e-16      66273.3      259.139
       7001.2869  2.24074e-13  8.67380e-16      67669.6      261.946
       7006.9801  2.25853e-13  8.70727e-16      68200.2      262.932
       7012.6733  2.23848e-13  8.67080e-16      67577.3      261.762
       7018.3665  2.16166e-13  8.51792e-16      65230.3      257.036
       7024.0597  2.07800e-13  8.35901e-16      62671.0      252.102
       7029.7529  2.04850e-13  8.30109e-16      61746.1      250.212
       7035.4461  2.03138e-13  8.27086e-16      61192.9      249.150
       7041.1393  2.02882e-13  8.26985e-16      61066.4      248.918
       7046.8325  2.02794e-13  8.27306e-16      60971.9      248.738
       7052.5256  2.00469e-13  8.23548e-16      60188.0      247.259
       7058.2188  1.97944e-13  8.18597e-16      59338.7      245.395
       7063.9120  2.01661e-13  8.26901e-16      60355.4      247.485
       7069.6052  2.06497e-13  8.37061e-16      61704.9      250.128
       7075.2984  2.11227e-13  8.47388e-16      63022.7      252.830
       7080.9916  2.16190e-13  8.57894e-16      64419.4      255.632
       7086.6848  2.22872e-13  8.71201e-16      66339.8      259.321
       7092.3780  2.26796e-13  8.79053e-16      67445.4      261.416
       7098.0712  2.30901e-13  8.87393e-16      68594.8      263.621
       7103.7643  2.36234e-13  8.97990e-16      70068.9      266.351
       7109.4575  2.40415e-13  9.06955e-16      71134.8      268.352
       7115.1507  2.45829e-13  9.18643e-16      72480.3      270.853
       7120.8439  2.47688e-13  9.23965e-16      72707.5      271.225
       7126.5371  2.47011e-13  9.24955e-16      72182.1      270.292
       7132.2303  2.36733e-13  9.07857e-16      68876.0      264.135
       7137.9235  2.32001e-13  9.00640e-16      67208.5      260.907
       7143.6167  2.30565e-13  9.00330e-16      66481.8      259.604
       7149.3099  2.29794e-13  9.00761e-16      65948.1      258.508
       7155.0030  2.27208e-13  8.97782e-16      64889.0      256.401
       7160.6962  2.23991e-13  8.93733e-16      63655.8      253.989
       7166.3894  2.16722e-13  8.81258e-16      61295.8      249.248
       7172.0826  2.09347e-13  8.68540e-16      58939.2      244.528
       7177.7758  2.05135e-13  8.61657e-16      57499.2      241.521
       7183.4690  2.02294e-13  8.57350e-16      56449.9      239.242
       7189.1622  2.04100e-13  8.63254e-16      56689.6      239.772
       7194.8554  2.13436e-13  8.84642e-16      59000.9      244.545
       7200.5486  2.28921e-13  9.18137e-16      62970.2      252.556
       7206.2417  2.56514e-13  9.73693e-16      70200.2      266.471
       7211.9349  2.82780e-13  1.02496e-15      76986.9      279.044
       7217.6281  2.94671e-13  1.04877e-15      79814.6      284.070
       7223.3213  2.99285e-13  1.05961e-15      80688.2      285.674
       7229.0145  2.95682e-13  1.05599e-15      79431.2      283.678
       7234.7077  2.86641e-13  1.04299e-15      76820.6      279.524
       7240.4009  2.75063e-13  1.02481e-15      73615.3      274.270
       7246.0941  2.68898e-13  1.01397e-15      71878.9      271.043
       7251.7873  2.66220e-13  1.00769e-15      71074.8      269.030
       7257.4805  2.68215e-13  1.01070e-15      71520.4      269.506
       7263.1736  2.69009e-13  1.01245e-15      71676.9      269.766
       7268.8668  2.67410e-13  1.01091e-15      71203.6      269.175
       7274.5600  2.65112e-13  1.00848e-15      70561.8      268.415
       7280.2532  2.66728e-13  1.01188e-15      70981.7      269.282
       7285.9464  2.74209e-13  1.02401e-15      72974.6      272.518
       7291.6396  2.86322e-13  1.04487e-15      76207.3      278.101
       7297.3328  2.97933e-13  1.06533e-15      79293.2      283.532
       7303.0260  3.04306e-13  1.07690e-15      80979.3      286.575
       7308.7192  3.05399e-13  1.07957e-15      81264.4      287.265
       7314.4123  3.05113e-13  1.07983e-15      81194.3      287.355
       7320.1055  2.96852e-13  1.06535e-15      79013.3      283.564
       7325.7987  2.83034e-13  1.03946e-15      75353.9      276.741
       7331.4919  2.64926e-13  1.00641e-15      70545.9      267.991
       7337.1851  2.53468e-13  9.85465e-16      67507.7      262.465
       7342.8783  2.46582e-13  9.72414e-16      65696.7      259.080
       7348.5715  2.42907e-13  9.63479e-16      64739.2      256.785
       7354.2647  2.34712e-13  9.46689e-16      62572.3      252.380
       7359.9579  2.24112e-13  9.25829e-16      59750.6      246.836
       7365.6510  2.16908e-13  9.11695e-16      57812.3      242.994
       7371.3442  2.16033e-13  9.10259e-16      57538.4      242.439
       7377.0374  2.16740e-13  9.10629e-16      57668.2      242.292
       7382.7306  2.13907e-13  9.04774e-16      56846.7      240.448
       7388.4238  2.17757e-13  9.13679e-16      57787.8      242.470
       7394.1170  2.27898e-13  9.35953e-16      60372.4      247.943
       7399.8102  2.33545e-13  9.48727e-16      61734.8      250.784
       7405.5034  2.36289e-13  9.54950e-16      62303.4      251.796
       7411.1966  2.42899e-13  9.68154e-16      63873.8      254.590
       7416.8897  2.55443e-13  9.93423e-16      67002.6      260.575
       7422.5829  2.71684e-13  1.02550e-15      71104.2      268.391
       7428.2761  2.90110e-13  1.06077e-15      75767.6      277.041
       7433.9693  3.07872e-13  1.09378e-15      80229.8      285.033
       7439.6625  3.21522e-13  1.11895e-15      83585.1      290.890
       7445.3557  3.26478e-13  1.12843e-15      84653.0      292.591
       7451.0489  3.31931e-13  1.13916e-15      85829.0      294.559
       7456.7421  3.39691e-13  1.15421e-15      87573.7      297.561
       7462.4353  3.51993e-13  1.17719e-15      90452.4      302.506
       7468.1284  3.60769e-13  1.19440e-15      92379.7      305.842
       7473.8216  3.60238e-13  1.19601e-15      91898.3      305.107
       7479.5148  3.45158e-13  1.17303e-15      87725.1      298.137
       7485.2080  3.24617e-13  1.13971e-15      82219.2      288.666
       7490.9012  3.10125e-13  1.11530e-15      78302.3      281.597
       7496.5944  3.00954e-13  1.10002e-15      75767.9      276.939
       7502.2876  2.95505e-13  1.09137e-15      74186.1      273.988
       7507.9808  2.89479e-13  1.08229e-15      72456.3      270.895
       7513.6740  2.86011e-13  1.07852e-15      71352.5      269.063
       7519.3672  2.82884e-13  1.07597e-15      70291.6      267.360
       7525.0603  2.77263e-13  1.06908e-15      68499.9      264.125
       7530.7535  2.69281e-13  1.05753e-15      65966.6      259.066
       7536.4467  2.59784e-13  1.04210e-15      63103.7      253.135
       7542.1399  2.52783e-13  1.03220e-15      60884.8      248.613
       7547.8331  2.48961e-13  1.02874e-15      59458.8      245.691
       7553.5263  2.46490e-13  1.02839e-15      58371.4      243.532
       7559.2195  2.43433e-13  1.02688e-15      57164.5      241.137
       7564.9127  2.41535e-13  1.02738e-15      56255.5      239.285
       7570.6059  2.40380e-13  1.02975e-15      55546.5      237.952
       7576.2990  2.38320e-13  1.02903e-15      54656.9      236.001
       7581.9922  2.32545e-13  1.01943e-15      52950.1      232.123
       7587.6854  2.13768e-13  9.80621e-16      48339.5      221.748
       7593.3786  1.72493e-13  8.82393e-16      38743.8      198.195
       7599.0718  1.21884e-13  7.45428e-16      27195.1      166.322
       7604.7650  9.73433e-14  6.71691e-16      21576.8      148.885
       7610.4582  1.10569e-13  7.15623e-16      24348.6      157.589
       7616.1514  1.39339e-13  8.06381e-16      30485.1      176.422
       7621.8446  1.51627e-13  8.44618e-16      32961.5      183.608
       7627.5377  1.44163e-13  8.26081e-16      31150.6      178.499
       7633.2309  1.42877e-13  8.23998e-16      30709.9      177.110
       7638.9241  1.52855e-13  8.52829e-16      32722.7      182.571
       7644.6173  1.68555e-13  8.95985e-16      36026.9      191.508
       7650.3105  1.88317e-13  9.46047e-16      40324.0      202.576
       7656.0037  2.11282e-13  1.00096e-15      45322.2      214.716
       7661.6969  2.28231e-13  1.03918e-15      49045.2      223.313
       7667.3901  2.37527e-13  1.05856e-15      51134.1      227.883
       7673.0833  2.43815e-13  1.07143e-15      52563.1      230.986
       7678.7764  2.46708e-13  1.07726e-15      53254.4      232.538
       7684.4696  2.53335e-13  1.09072e-15      54754.3      235.742
       7690.1628  2.69423e-13  1.12375e-15      58305.2      243.188
       7695.8560  2.87029e-13  1.15947e-15      62185.9      251.203
       7701.5492  2.98003e-13  1.18124e-15      64626.5      256.170
       7707.2424  3.15565e-13  1.21660e-15      68497.7      264.080
       7712.9356  3.55991e-13  1.29209e-15      77342.4      280.718
       7718.6288  4.18836e-13  1.39929e-15      91069.2      304.254
       7724.3220  4.78785e-13  1.49270e-15      104157.      324.727
       7730.0152  5.20619e-13  1.55454e-15      113275.      338.233
       7735.7083  5.29226e-13  1.56709e-15      115130.      340.912
       7741.4015  4.99782e-13  1.52415e-15      108668.      331.399
       7747.0947  4.73962e-13  1.48760e-15      102951.      323.127
       7752.7879  5.19376e-13  1.55674e-15      112645.      337.633
       7758.4811  6.44160e-13  1.73112e-15      139438.      374.727
       7764.1743  7.84681e-13  1.91162e-15      169490.      412.908
       7769.8675  8.87443e-13  2.03497e-15      191258.      438.569
       7775.5607  9.42004e-13  2.09919e-15      202552.      451.375
       7781.2539  9.50636e-13  2.11168e-15      203910.      452.952
       7786.9470  9.14640e-13  2.07467e-15      195649.      443.790
       7792.6402  8.38983e-13  1.99056e-15      178986.      424.659
       7798.3334  7.47097e-13  1.88144e-15      158921.      400.215
       7804.0266  6.66315e-13  1.78003e-15      141254.      377.355
       7809.7198  6.01501e-13  1.69553e-15      127029.      358.073
       7815.4130  5.38878e-13  1.60948e-15      113380.      338.634
       7821.1062  4.77196e-13  1.51902e-15      100040.      318.450
       7826.7994  4.18870e-13  1.42546e-15      87492.3      297.747
       7832.4926  3.68396e-13  1.33903e-15      76653.8      278.619
       7838.1857  3.36225e-13  1.28346e-15      69670.6      265.952
       7843.8789  3.29403e-13  1.27506e-15      67969.4      263.096
       7849.5721  3.37930e-13  1.29654e-15      69433.0      266.394
       7855.2653  3.46144e-13  1.31604e-15      70810.7      269.222
       7860.9585  3.51548e-13  1.32785e-15      71602.4      270.454
       7866.6517  3.54385e-13  1.33469e-15      71882.4      270.724
       7872.3449  3.58296e-13  1.34391e-15      72401.6      271.567
       7878.0381  3.62841e-13  1.35414e-15      73066.3      272.687
       7883.7313  3.57629e-13  1.34612e-15      71780.5      270.184
       7889.4244  3.47999e-13  1.32991e-15      69621.6      266.065
       7895.1176  3.46175e-13  1.32779e-15      69026.0      264.757
       7900.8108  3.51063e-13  1.33909e-15      69757.1      266.081
       7906.5040  3.58149e-13  1.35737e-15      70909.7      268.745
       7912.1972  3.58958e-13  1.36489e-15      70820.2      269.283
       7917.8904  3.50627e-13  1.35148e-15      68948.5      265.760
       7923.5836  3.41927e-13  1.33426e-15      67032.9      261.575
       7929.2768  3.37674e-13  1.32604e-15      66002.9      259.192
       7934.9700  3.36935e-13  1.32538e-15      65645.1      258.224
       7940.6631  3.38788e-13  1.33062e-15      65776.1      258.341
       7946.3563  3.41944e-13  1.33947e-15      66149.4      259.122
       7952.0495  3.39278e-13  1.33701e-15      65405.2      257.746
       7957.7427  3.29190e-13  1.32053e-15      63261.8      253.773
       7963.4359  3.17426e-13  1.30097e-15      60827.9      249.304
       7969.1291  3.07060e-13  1.28129e-15      58685.1      244.880
       7974.8223  3.00957e-13  1.26869e-15      57376.9      241.873
       7980.5155  2.98620e-13  1.26550e-15      56801.1      240.714
       7986.2087  2.96460e-13  1.26387e-15      56265.1      239.869
       7991.9019  2.90152e-13  1.25336e-15      54943.9      237.339
       7997.5950  2.81164e-13  1.23420e-15      53119.0      233.171
       8003.2882  2.76177e-13  1.22204e-15      52049.9      230.312
       8008.9814  2.76433e-13  1.22381e-15      51957.5      230.023
       8014.6746  2.76954e-13  1.22777e-15      51900.3      230.081
       8020.3678  2.76952e-13  1.23114e-15      51735.2      229.979
       8026.0610  2.75827e-13  1.23152e-15      51357.8      229.304
       8031.7542  2.71362e-13  1.22163e-15      50363.2      226.728
       8037.4474  2.67971e-13  1.21363e-15      49573.2      224.516
       8043.1406  2.70443e-13  1.22078e-15      49867.0      225.099
       8048.8337  2.78351e-13  1.24101e-15      51156.9      228.079
       8054.5269  2.86487e-13  1.26166e-15      52483.0      231.131
       8060.2201  2.86447e-13  1.26406e-15      52313.7      230.855
       8065.9133  2.81386e-13  1.25396e-15      51233.8      228.318
       8071.6065  2.77192e-13  1.24551e-15      50304.6      226.035
       8077.2997  2.75703e-13  1.24434e-15      49836.5      224.928
       8082.9929  2.76622e-13  1.24957e-15      49758.1      224.769
       8088.6861  2.80038e-13  1.26137e-15      50078.0      225.565
       8094.3793  2.82950e-13  1.27240e-15      50265.3      226.039
       8100.0724  2.79438e-13  1.26914e-15      49282.9      223.831
       8105.7656  2.69568e-13  1.25107e-15      47205.9      219.084
       8111.4588  2.56957e-13  1.22551e-15      44685.6      213.120
       8117.1520  2.45792e-13  1.20284e-15      42451.7      207.747
       8122.8452  2.43502e-13  1.20131e-15      41764.6      206.044
       8128.5384  2.53836e-13  1.23058e-15      43237.1      209.610
       8134.2316  2.63280e-13  1.25768e-15      44546.4      212.796
       8139.9248  2.64112e-13  1.26371e-15      44403.8      212.462
       8145.6180  2.59245e-13  1.25607e-15      43316.2      209.872
       8151.3111  2.58014e-13  1.25670e-15      42848.2      208.700
       8157.0043  2.70007e-13  1.28865e-15      44574.4      212.739
       8162.6975  2.91761e-13  1.34267e-15      47894.9      220.410
       8168.3907  3.18079e-13  1.40511e-15      51929.8      229.400
       8174.0839  3.43625e-13  1.46409e-15      55796.5      237.733
       8179.7771  3.67744e-13  1.51810e-15      59390.7      245.173
       8185.4703  3.89652e-13  1.56693e-15      62571.8      251.624
       8191.1635  4.08503e-13  1.60892e-15      65230.1      256.915
       8196.8567  4.41477e-13  1.67577e-15      70144.7      266.257
       8202.5499  4.91104e-13  1.76983e-15      77718.5      280.081
       8208.2430  5.32614e-13  1.84543e-15      84036.4      291.173
       8213.9362  5.50735e-13  1.87824e-15      86731.3      295.790
       8219.6294  5.48001e-13  1.87459e-15      86205.4      294.890
       8225.3226  5.44926e-13  1.87110e-15      85584.3      293.869
       8231.0158  5.72265e-13  1.91839e-15      89726.8      300.789
       8236.7090  6.16208e-13  1.99193e-15      96448.4      311.776
       8242.4022  6.28602e-13  2.01392e-15      98223.7      314.690
       8248.0954  6.06019e-13  1.97935e-15      94535.9      308.768
       8253.7886  5.60687e-13  1.90541e-15      87333.3      296.789
       8259.4817  5.07288e-13  1.81445e-15      78906.8      282.231
       8265.1749  4.61818e-13  1.73341e-15      71747.0      269.299
       8270.8681  4.27149e-13  1.67033e-15      66283.9      259.197
       8276.5613  4.03313e-13  1.62797e-15      62511.9      252.329
       8282.2545  3.83322e-13  1.59164e-15      59343.9      246.410
       8287.9477  3.59976e-13  1.54516e-15      55674.3      238.977
       8293.6409  3.42841e-13  1.50923e-15      52981.3      233.230
       8299.3341  3.34248e-13  1.48996e-15      51605.0      230.037
       8305.0273  3.35467e-13  1.49059e-15      51756.7      229.973
       8310.7204  3.50079e-13  1.52028e-15      53983.1      234.431
       8316.4136  3.67281e-13  1.55537e-15      56612.2      239.743
       8322.1068  3.78626e-13  1.57814e-15      58339.6      243.164
       8327.8000  3.83092e-13  1.58764e-15      59026.1      244.621
       8333.4932  3.82585e-13  1.58917e-15      58949.8      244.865
       8339.1864  3.85823e-13  1.60195e-15      59452.6      246.850
       8344.8796  3.90164e-13  1.61539e-15      60139.7      248.995
       8350.5728  3.84179e-13  1.60103e-15      59224.8      246.813
       8356.2660  3.62509e-13  1.55078e-15      55887.9      239.084
       8361.9591  3.34329e-13  1.48682e-15      51553.4      229.267
       8367.6523  3.10106e-13  1.43097e-15      47836.4      220.739
       8373.3455  2.97586e-13  1.40145e-15      45928.3      216.294
       8379.0387  3.18785e-13  1.44973e-15      49229.7      223.881
       8384.7319  3.83649e-13  1.58757e-15      59274.2      245.281
       8390.4251  4.71497e-13  1.75891e-15      72856.4      271.790
       8396.1183  5.47781e-13  1.89864e-15      84645.7      293.387
       8401.8115  5.93676e-13  1.97637e-15      91726.4      305.360
       8407.5047  6.11453e-13  2.00252e-15      94460.0      309.358
       8413.1978  6.18251e-13  2.01288e-15      95495.6      310.911
       8418.8910  6.53255e-13  2.06897e-15      100895.      319.552
       8424.5842  7.46585e-13  2.21177e-15      115269.      341.487
       8430.2774  8.66758e-13  2.38411e-15      133769.      367.946
       8435.9706  9.72149e-13  2.52189e-15      149971.      389.045
       8441.6638  1.05100e-12  2.61947e-15      162046.      403.876
       8447.3570  1.08497e-12  2.66239e-15      167187.      410.257
       8453.0502  1.08704e-12  2.66691e-15      167379.      410.641
       8458.7434  1.08059e-12  2.66120e-15      166278.      409.496
       8464.4366  1.06482e-12  2.64371e-15      163784.      406.638
       8470.1297  1.05834e-12  2.63432e-15      162754.      405.111
       8475.8229  1.09482e-12  2.67643e-15      168339.      411.525
       8481.5161  1.13155e-12  2.72045e-15      173963.      418.239
       8487.2093  1.12383e-12  2.71151e-15      172754.      416.810
       8492.9025  1.11858e-12  2.70651e-15      171906.      415.942
       8498.5957  1.12279e-12  2.71295e-15      172511.      416.828
       8504.2889  1.09704e-12  2.68325e-15      168423.      411.946
       8509.9821  1.02790e-12  2.59750e-15      157661.      398.408
       8515.6753  9.66008e-13  2.51824e-15      148040.      385.920
       8521.3684  9.63551e-13  2.51549e-15      147551.      385.203
       8527.0616  9.72202e-13  2.52810e-15      148750.      386.807
       8532.7548  9.73516e-13  2.53157e-15      148777.      386.886
       8538.4480  1.00359e-12  2.57289e-15      153101.      392.502
       8544.1412  1.05727e-12  2.64286e-15      161038.      402.549
       8549.8344  1.10314e-12  2.70156e-15      167761.      410.843
       8555.5276  1.09031e-12  2.68729e-15      165545.      408.019
       8561.2208  9.76900e-13  2.54348e-15      148114.      385.632
       8566.9140  8.00904e-13  2.30391e-15      121245.      348.779
       8572.6071  6.51310e-13  2.08186e-15      98458.6      314.714
       8578.3003  5.78287e-13  1.96602e-15      87299.5      296.795
       8583.9935  5.43591e-13  1.90810e-15      81944.9      287.640
       8589.6867  5.06122e-13  1.84389e-15      76147.3      277.418
       8595.3799  4.71907e-13  1.78316e-15      70860.7      267.755
       8601.0731  4.44560e-13  1.73280e-15      66621.9      259.677
       8606.7663  4.25573e-13  1.69734e-15      63640.1      253.820
       8612.4595  4.25757e-13  1.69966e-15      63538.2      253.650
       8618.1527  4.60324e-13  1.76884e-15      68549.8      263.409
       8623.8458  5.21538e-13  1.88429e-15      77514.2      280.055
       8629.5390  5.80707e-13  1.98956e-15      86180.4      295.263
       8635.2322  6.25205e-13  2.06511e-15      92637.7      305.991
       8640.9254  6.61532e-13  2.12446e-15      97868.5      314.296
       8646.6186  6.74913e-13  2.14771e-15      99658.2      317.133
       8652.3118  6.71766e-13  2.14549e-15      99036.4      316.303
       8658.0050  6.86642e-13  2.16982e-15      101154.      319.651
       8663.6982  7.28740e-13  2.23509e-15      107274.      329.015
       8669.3914  7.69926e-13  2.29776e-15      113261.      338.015
       8675.0846  7.69325e-13  2.29691e-15      113098.      337.668
       8680.7777  7.27281e-13  2.23306e-15      106858.      328.100
       8686.4709  6.84837e-13  2.16761e-15      100571.      318.324
       8692.1641  6.85638e-13  2.16936e-15      100653.      318.468
       8697.8573  7.38160e-13  2.25087e-15      108288.      330.203
       8703.5505  8.00906e-13  2.34606e-15      117358.      343.772
       8709.2437  8.31592e-13  2.39164e-15      121735.      350.107
       8714.9369  8.20013e-13  2.37588e-15      119876.      347.325
       8720.6301  7.73642e-13  2.30912e-15      112932.      337.073
       8726.3233  7.20930e-13  2.23130e-15      105103.      325.298
       8732.0164  6.79624e-13  2.16878e-15      98927.1      315.691
       8737.7096  6.56090e-13  2.13328e-15      95347.0      310.022
       8743.4028  6.38469e-13  2.10639e-15      92683.9      305.776
       8749.0960  6.04194e-13  2.05145e-15      87610.8      297.469
       8754.7892  5.52559e-13  1.96684e-15      80021.5      284.838
       8760.4824  4.89426e-13  1.85807e-15      70782.8      268.721
       8766.1756  4.23515e-13  1.73348e-15      61187.6      250.445
       8771.8688  3.69818e-13  1.62291e-15      53376.0      234.235
       8777.5620  3.36677e-13  1.55069e-15      48525.1      223.501
       8783.2551  3.26643e-13  1.52574e-15      47023.2      219.645
       8788.9483  3.27039e-13  1.52464e-15      47009.6      219.157
       8794.6415  3.18758e-13  1.50470e-15      45750.4      215.964
       8800.3347  3.05674e-13  1.47266e-15      43803.9      211.036
       8806.0279  2.95803e-13  1.44972e-15      42318.7      207.403
       8811.7211  2.94530e-13  1.44933e-15      42056.2      206.952
       8817.4143  3.03638e-13  1.47741e-15      43282.5      210.599
       8823.1075  3.12694e-13  1.50996e-15      44521.0      214.986
       8828.8007  3.19309e-13  1.53109e-15      45418.2      217.782
       8834.4938  3.29316e-13  1.54912e-15      46793.3      220.119
       8840.1870  3.39536e-13  1.56644e-15      48171.8      222.240
       8845.8802  3.38924e-13  1.56168e-15      47998.2      221.165
       8851.5734  3.37568e-13  1.55824e-15      47734.8      220.347
       8857.2666  3.53473e-13  1.59441e-15      49922.3      225.184
       8862.9598  3.79534e-13  1.65423e-15      53537.1      233.345
       8868.6530  4.03189e-13  1.70710e-15      56800.8      240.495
       8874.3462  4.09507e-13  1.72089e-15      57618.8      242.134
       8880.0394  3.83936e-13  1.67057e-15      53935.9      234.684
       8885.7325  3.38147e-13  1.57534e-15      47411.8      220.879
       8891.4257  3.03050e-13  1.49241e-15      42391.1      208.762
       8897.1189  2.90120e-13  1.45888e-15      40491.7      203.614
       8902.8121  3.03504e-13  1.49445e-15      42248.8      208.032
       8908.5053  3.24143e-13  1.54666e-15      44992.4      214.683
       8914.1985  3.30014e-13  1.56780e-15      45625.4      216.753
       8919.8917  3.23296e-13  1.56032e-15      44468.5      214.618
       8925.5849  3.02099e-13  1.50775e-15      41311.9      206.184
       8931.2781  2.73982e-13  1.43439e-15      37261.1      195.074
       8936.9713  2.51305e-13  1.37901e-15      33994.1      186.540
       8942.6644  2.43089e-13  1.36253e-15      32707.0      183.326
       8948.3576  2.41567e-13  1.36340e-15      32336.7      182.507
       8954.0508  2.41089e-13  1.36917e-15      32114.0      182.379
       8959.7440  2.37416e-13  1.36398e-15      31493.8      180.935
       8965.4372  2.27221e-13  1.33118e-15      30013.2      175.833
       8971.1304  2.20109e-13  1.30805e-15      28948.4      172.033
       8976.8236  2.25282e-13  1.32527e-15      29496.8      173.521
       8982.5168  2.45120e-13  1.38560e-15      31952.0      180.616
       8988.2100  2.84890e-13  1.49681e-15      36970.0      194.240
       8993.9031  3.38082e-13  1.63377e-15      43684.5      211.105
       8999.5963  3.70310e-13  1.71372e-15      47668.5      220.600
       9005.2895  3.72968e-13  1.72081e-15      47861.2      220.822
       9010.9827  3.75449e-13  1.72432e-15      48053.2      220.694
       9016.6759  3.74316e-13  1.72315e-15      47786.5      219.983
       9022.3691  3.90317e-13  1.76114e-15      49719.0      224.336
       9028.0623  4.19649e-13  1.82753e-15      53364.2      232.396
       9033.7555  4.52710e-13  1.89961e-15      57506.5      241.302
       9039.4487  4.82590e-13  1.96102e-15      61321.9      249.184
       9045.1418  4.92344e-13  1.97981e-15      62646.1      251.912
       9050.8350  4.77529e-13  1.94824e-15      60843.9      248.234
       9056.5282  4.66132e-13  1.92206e-15      59480.9      245.265
       9062.2214  4.77910e-13  1.94333e-15      61082.7      248.382
       9067.9146  5.06025e-13  1.99691e-15      64782.0      255.647
       9073.6078  5.63255e-13  2.10416e-15      72227.5      269.820
       9079.3010  6.16802e-13  2.20043e-15      79225.1      282.634
       9084.9942  6.27529e-13  2.21658e-15      80772.6      285.308
       9090.6874  6.29896e-13  2.21840e-15      81253.5      286.163
       9096.3805  6.29474e-13  2.21528e-15      81385.2      286.415
       9102.0737  6.45342e-13  2.24019e-15      83633.2      290.318
       9107.7669  6.89402e-13  2.31124e-15      89591.4      300.358
       9113.4601  7.13972e-13  2.34806e-15      93062.5      306.058
       9119.1533  6.66458e-13  2.26535e-15      87131.6      296.167
       9124.8465  5.91036e-13  2.13183e-15      77352.0      279.004
       9130.5397  4.86101e-13  1.93273e-15      63644.6      253.050
       9136.2329  3.87580e-13  1.72799e-15      50763.2      226.323
       9141.9261  3.34723e-13  1.60726e-15      43861.1      210.611
       9147.6193  3.11646e-13  1.55460e-15      40853.0      203.790
       9153.3124  3.04361e-13  1.54194e-15      39943.3      202.359
       9159.0056  2.99998e-13  1.53007e-15      39411.5      201.010
       9164.6988  2.95876e-13  1.51934e-15      38879.9      199.650
       9170.3920  2.94756e-13  1.51407e-15      38742.5      199.007
       9176.0852  2.99897e-13  1.52056e-15      39426.3      199.902
       9181.7784  2.98778e-13  1.51752e-15      39282.5      199.519
       9187.4716  3.11928e-13  1.54973e-15      41009.9      203.746
       9193.1648  3.57583e-13  1.65804e-15      47004.7      217.951
       9198.8580  4.23312e-13  1.80364e-15      55599.9      236.899
       9204.5511  4.85335e-13  1.93313e-15      63641.6      253.489
       9210.2443  5.08517e-13  1.98037e-15      66527.6      259.085
       9215.9375  5.11022e-13  1.98833e-15      66647.7      259.318
       9221.6307  4.99779e-13  1.97057e-15      64935.1      256.032
       9227.3239  4.94395e-13  1.96387e-15      63933.2      253.959
       9233.0171  5.03698e-13  1.98849e-15      64732.9      255.552
       9238.7103  5.37225e-13  2.06092e-15      68478.8      262.701
       9244.4035  5.98780e-13  2.18428e-15      75708.3      276.174
       9250.0967  6.62836e-13  2.30884e-15      83013.8      289.160
       9255.7898  6.81843e-13  2.35484e-15      84433.8      291.604
       9261.4830  6.81543e-13  2.36982e-15      83277.1      289.566
       9267.1762  6.77654e-13  2.38150e-15      81566.2      286.650
       9272.8694  7.06073e-13  2.45154e-15      83545.0      290.075
       9278.5626  7.37082e-13  2.52704e-15      85692.1      293.790
       9284.2558  7.15153e-13  2.51028e-15      81733.1      286.893
       9289.9490  6.46295e-13  2.40578e-15      72572.8      270.146
       9295.6422  5.32181e-13  2.20787e-15      58685.8      243.471
       9301.3354  4.33117e-13  2.01657e-15      46884.6      218.293
       9307.0285  3.59084e-13  1.86425e-15      38149.2      198.058
       9312.7217  3.01991e-13  1.73565e-15      31480.7      180.931
       9318.4149  2.70811e-13  1.66028e-15      27708.1      169.872
       9324.1081  2.61857e-13  1.64608e-15      26313.7      165.412
       9329.8013  2.47322e-13  1.60824e-15      24429.7      158.857
       9335.4945  2.22456e-13  1.53534e-15      21612.8      149.166
       9341.1877  2.08651e-13  1.49850e-15      19947.6      143.261
       9346.8809  2.24276e-13  1.56206e-15      21117.2      147.080
       9352.5741  2.51740e-13  1.66486e-15      23386.6      154.665
       9358.2672  2.63886e-13  1.71338e-15      24259.8      157.516
       9363.9604  3.03596e-13  1.84691e-15      27707.9      168.560
       9369.6536  3.22629e-13  1.91431e-15      29325.5      174.002
       9375.3468  3.53052e-13  2.01390e-15      32065.6      182.910
       9381.0400  3.94288e-13  2.11383e-15      35899.9      192.464
       9386.7332  4.58197e-13  2.25505e-15      41951.0      206.465
       9392.4264  5.28039e-13  2.40673e-15      48738.8      222.145
       9398.1196  6.06644e-13  2.56794e-15      56493.3      239.138
       9403.8128  6.53529e-13  2.65359e-15      61406.9      249.336
       9409.5060  6.49092e-13  2.62982e-15      61578.4      249.487
       9415.1991  5.81227e-13  2.47805e-15      55679.9      237.391
       9420.8923  4.97673e-13  2.28528e-15      48147.0      221.088
       9426.5855  3.93643e-13  2.02440e-15      38463.0      197.805
       9432.2787  3.33563e-13  1.85846e-15      32921.5      183.423
       9437.9719  3.00862e-13  1.75692e-15      30300.3      176.942
       9443.6651  2.74676e-13  1.63425e-15      29174.9      173.583
       9449.3583  2.55375e-13  1.48347e-15      30327.1      176.169
       9455.0515  1.96416e-13  1.23872e-15      25840.3      162.964
       9460.7447  1.53352e-13  1.04702e-15      22180.1      151.436
       9466.4378  1.30898e-13  9.24370e-16      20681.1      146.044
       9472.1310  1.19224e-13  8.48935e-16      20464.0      145.713
       9477.8242  1.10631e-13  7.90113e-16      20532.3      146.639
       9483.5174  1.86282e-13  1.33197e-15      20223.9      144.606
       9489.2106  1.81181e-13  1.30139e-15      19891.4      142.876
       9494.9038  1.29555e-13  9.94695e-16      17442.9      133.923
       9500.5970  8.14327e-14  6.22609e-16      17662.4      135.041
       9506.2902  5.45838e-14  3.83488e-16      20833.2      146.367
       9511.9834  5.85527e-14  3.94006e-16      22611.4      152.154
       9517.6765  5.10252e-14  3.67179e-16      19939.6      143.486
       9523.3697  4.80008e-14  3.53493e-16      18984.3      139.806
       9529.0629  4.32909e-14  3.33568e-16      17331.0      133.540
       9534.7561  1.38812e-16  1.92617e-17      56.2598      7.80666
